Accel_X,Accel_Y,Accel_Z,Gyro_X,Gyro_Y,Gyro_Z,Temperature
1006,-344,16750,56,14,38,243
996,-334,16764,61,13,38,243
964,-358,16786,65,18,35,243
982,-364,16814,64,22,35,243
986,-338,16766,62,21,44,243
972,-372,16778,58,25,28,243
1000,-344,16762,65,30,32,243
1002,-366,16806,65,17,36,243
966,-368,16776,63,9,37,242
1028,-368,16754,63,21,27,243
970,-340,16774,63,61,44,243
1000,-382,16776,63,47,44,243
992,-360,16780,65,45,46,243
984,-358,16788,69,29,36,243
984,-346,16792,64,14,46,243
956,-368,16798,71,14,31,243
998,-362,16756,67,-13,37,243
1002,-358,16790,64,13,30,243
996,-354,16806,60,8,34,243
984,-350,16754,63,37,28,243
962,-386,16788,66,53,40,243
974,-368,16788,61,33,33,243
992,-364,16790,60,32,28,243
970,-362,16780,60,37,43,243
972,-358,16794,57,12,41,243
998,-374,16784,64,4,36,243
990,-366,16770,67,17,50,243
956,-336,16800,60,36,35,243
982,-362,16778,65,17,28,243
984,-386,16780,51,27,38,243
1006,-366,16846,61,26,35,243
964,-354,16786,53,8,32,243
1002,-338,16728,65,32,39,243
962,-350,16926,64,46,32,243
992,-344,16882,57,8,27,243
1014,-330,16742,67,43,32,243
984,-344,16764,59,50,32,243
1000,-362,16798,58,-19,39,243
974,-360,16742,60,3,42,243
990,-350,16814,64,29,40,243
978,-340,16780,61,32,35,242
970,-366,16802,70,31,35,243
1012,-330,16752,63,47,36,243
984,-358,16856,58,37,39,243
1006,-376,16772,53,17,34,243
996,-348,16754,69,32,32,243
982,-368,16842,50,43,36,243
992,-364,16806,66,0,40,243
1000,-344,16748,67,29,35,243
986,-362,16758,60,44,40,243
1004,-358,16820,64,25,35,243
978,-370,16784,60,12,31,243
990,-368,16718,56,48,33,243
968,-366,16810,66,26,42,243
960,-354,16818,57,18,33,243
978,-380,16772,61,17,26,242
984,-352,16772,68,27,39,243
998,-372,16784,65,14,49,243
992,-382,16778,64,16,32,243
1012,-346,16802,58,25,34,243
984,-330,16792,51,32,41,242
978,-348,16790,72,31,40,243
968,-402,16778,62,49,28,243
976,-336,16806,64,41,35,243
962,-358,16736,71,29,40,243
984,-352,16752,62,33,36,243
1020,-368,16778,64,28,32,243
988,-358,16824,61,19,30,243
994,-360,16730,64,14,47,242
978,-344,16772,63,26,31,243
1026,-366,16818,64,11,42,243
1000,-344,16780,57,14,42,243
1008,-358,16790,68,25,42,243
990,-352,16782,67,28,39,243
1010,-336,16808,57,35,41,242
990,-342,16822,64,48,39,243
978,-368,16766,61,38,32,243
1014,-342,16776,63,20,44,243
992,-344,16802,72,30,32,243
978,-352,16800,63,35,45,243
980,-372,16762,58,20,36,243
1004,-342,16768,59,29,50,243
1004,-350,16796,54,36,32,243
992,-356,16816,59,34,29,243
992,-354,16752,61,25,24,243
984,-352,16758,60,25,34,243
984,-366,16802,52,26,39,243
970,-358,16820,62,26,35,243
990,-362,16758,60,29,28,243
982,-326,16798,67,29,30,243
984,-366,16786,60,24,38,243
982,-362,16794,62,21,35,243
966,-370,16750,62,32,38,243
978,-380,16762,68,29,38,243
976,-384,16800,58,34,35,243
984,-362,16802,61,30,37,243
996,-374,16770,62,25,33,243
1030,-344,16778,65,24,32,243
1002,-378,16798,55,15,28,243
962,-348,16800,65,17,45,243
972,-366,16756,67,27,41,243
1002,-384,16764,60,28,29,243
974,-362,16800,57,32,31,243
970,-344,16828,55,21,32,243
992,-350,16736,53,23,30,243
992,-330,16756,57,26,31,243
950,-362,16772,64,32,39,243
998,-328,16796,53,30,40,243
986,-342,16736,66,32,38,243
994,-354,16778,59,28,39,243
986,-366,16796,58,24,39,243
1014,-372,16808,61,19,31,243
984,-344,16774,56,24,43,243
992,-334,16808,64,20,41,243
976,-350,16818,65,30,36,242
1012,-340,16814,81,25,40,243
972,-356,16780,64,22,32,243
970,-338,16808,62,26,33,243
1006,-358,16802,59,41,47,243
990,-358,16802,78,31,35,243
984,-376,16752,59,22,41,243
1008,-376,16744,65,27,40,243
962,-386,16786,57,13,38,243
980,-358,16798,63,21,39,243
978,-334,16752,65,30,35,243
982,-350,16758,68,25,38,243
998,-376,16804,63,17,32,243
986,-358,16828,62,20,41,243
986,-352,16756,71,18,28,243
970,-368,16798,59,29,41,243
990,-380,16806,63,33,39,243
970,-332,16818,63,35,39,243
1004,-346,16774,58,30,42,243
998,-350,16786,72,34,39,243
992,-368,16790,66,22,29,243
986,-350,16802,55,32,38,243
1000,-350,16768,56,36,39,243
1020,-358,16766,61,19,36,243
1010,-336,16776,55,25,37,243
990,-344,16804,59,21,36,243
992,-360,16784,57,13,33,243
990,-368,16790,67,24,35,243
1000,-344,16792,66,12,39,243
992,-358,16814,58,22,40,243
1002,-366,16766,65,27,42,243
974,-380,16782,67,27,37,243
984,-322,16784,59,28,42,243
974,-344,16786,78,36,39,243
992,-348,16734,63,46,34,243
998,-344,16778,52,42,33,243
990,-364,16782,64,30,39,243
992,-364,16808,64,20,41,243
972,-344,16764,57,23,42,243
1002,-376,16770,61,17,35,243
974,-368,16828,60,28,32,243
964,-376,16806,59,17,34,243
992,-340,16770,65,13,44,243
988,-334,16764,65,29,41,243
990,-364,16788,68,22,43,243
992,-350,16804,57,29,35,243
984,-326,16764,66,37,40,243
966,-344,16788,63,39,37,243
982,-358,16784,62,25,31,243
992,-346,16806,58,16,27,243
978,-382,16730,64,21,29,243
962,-362,16792,68,28,35,243
976,-370,16798,61,28,35,243
982,-350,16790,56,36,35,243
1006,-358,16752,60,24,39,243
978,-354,16814,62,21,34,243
1004,-334,16818,60,29,42,243
1008,-344,16814,63,32,35,243
986,-352,16764,57,25,32,243
984,-340,16760,61,29,39,243
986,-358,16784,58,27,32,243
1004,-352,16812,61,21,37,243
984,-372,16756,74,20,28,243
998,-342,16758,57,29,36,243
986,-334,16814,55,25,42,243
978,-378,16806,60,35,39,243
994,-376,16738,61,35,40,243
970,-344,16788,66,26,41,243
976,-348,16778,61,23,34,243
1000,-344,16806,66,17,35,243
994,-358,16784,62,24,28,243
990,-322,16776,62,25,31,243
978,-350,16816,68,18,38,243
978,-370,16794,62,25,32,243
984,-340,16776,62,33,44,243
998,-382,16782,64,32,48,243
984,-354,16796,59,39,48,243
992,-370,16796,63,27,35,243
984,-364,16764,60,34,35,243
1014,-356,16784,71,25,34,243
1008,-346,16804,60,24,39,243
980,-330,16822,64,18,41,243
1014,-358,16774,58,18,44,243
992,-372,16742,67,21,39,243
964,-342,16808,66,25,47,243
994,-346,16798,69,26,34,243
1006,-350,16778,60,24,42,243
992,-362,16792,64,28,35,243
976,-344,16820,61,25,41,243
964,-366,16802,70,28,35,243
998,-366,16756,64,28,31,243
1010,-336,16774,64,26,41,243
1006,-334,16796,56,20,42,243
980,-330,16808,59,22,35,243
992,-354,16778,69,21,35,243
992,-352,16796,66,25,42,243
978,-360,16798,60,25,32,243
978,-358,16806,60,12,40,243
994,-372,16774,60,26,32,243
984,-362,16768,66,32,43,243
962,-360,16808,54,32,36,243
996,-364,16784,67,25,40,243
984,-344,16762,67,29,31,243
982,-372,16790,66,13,40,243
974,-344,16798,62,22,44,243
962,-342,16796,57,27,31,243
1014,-350,16748,61,34,32,243
984,-372,16770,60,30,29,243
990,-350,16804,62,32,35,243
984,-366,16770,60,23,33,243
982,-336,16784,67,24,33,243
984,-368,16800,65,30,30,243
1010,-384,16818,56,33,41,243
996,-346,16802,69,25,36,243
970,-354,16760,61,23,42,243
964,-344,16796,60,16,29,243
992,-340,16788,59,24,34,243
990,-350,16830,65,32,38,243
976,-330,16784,57,30,49,243
1000,-352,16768,67,31,29,243
988,-366,16810,55,31,39,243
990,-328,16806,59,30,32,243
1004,-368,16776,64,25,40,243
964,-332,16766,69,19,35,243
1006,-366,16816,67,14,44,243
1034,-344,16788,56,19,38,243
974,-330,16770,57,26,49,243
986,-354,16766,67,26,34,243
992,-358,16800,64,29,43,243
964,-358,16808,63,27,31,243
1000,-366,16764,59,33,28,243
1000,-364,16764,67,30,35,243
984,-340,16812,57,28,39,243
972,-354,16788,62,17,38,243
990,-348,16764,60,17,39,243
960,-336,16784,63,15,38,243
982,-336,16780,60,20,35,243
994,-358,16812,62,25,45,243
978,-370,16778,60,25,39,243
970,-338,16776,77,24,37,243
1000,-358,16806,67,19,19,243
976,-350,16800,61,25,39,243
978,-356,16756,60,33,34,243
988,-354,16786,69,34,45,243
1000,-372,16786,71,23,29,243
970,-358,16810,65,23,37,243
1006,-344,16764,62,23,41,243
982,-372,16778,64,31,39,243
984,-336,16814,70,31,36,243
980,-316,16774,54,25,46,243
980,-372,16770,61,25,38,243
1012,-346,16758,61,28,36,243
992,-366,16802,73,39,39,243
978,-340,16814,54,25,32,243
998,-348,16766,62,17,30,243
992,-344,16774,60,25,40,243
964,-336,16796,64,25,36,243
986,-338,16814,53,21,42,243
976,-336,16770,57,26,42,243
980,-360,16792,60,30,35,243
1000,-334,16800,57,29,40,243
986,-348,16818,55,32,35,243
994,-350,16760,71,40,48,243
1000,-334,16788,68,35,42,243
984,-372,16812,70,25,32,243
1004,-342,16800,62,29,35,243
980,-368,16726,67,21,43,243
994,-358,16788,52,23,35,243
992,-358,16824,50,24,31,243
998,-346,16782,73,22,40,243
994,-392,16784,61,22,35,243
992,-344,16796,59,33,37,243
988,-316,16796,75,25,41,243
970,-348,16786,65,32,29,243
982,-364,16754,71,31,39,243
986,-338,16788,69,31,35,243
998,-366,16804,64,34,40,243
990,-362,16810,59,27,40,243
986,-358,16774,57,23,40,243
982,-340,16788,63,24,40,243
984,-348,16808,71,19,30,243
972,-350,16802,64,23,37,243
990,-380,16778,60,26,37,243
972,-338,16790,61,31,34,243
1000,-336,16804,57,32,33,243
998,-360,16800,64,33,37,243
982,-374,16758,67,32,39,243
998,-336,16776,64,21,30,243
1006,-380,16792,58,27,28,243
980,-344,16798,60,24,39,243
976,-352,16752,64,21,43,243
984,-336,16774,66,12,40,243
1012,-340,16794,60,21,41,243
992,-348,16802,60,28,46,243
972,-350,16752,59,25,35,243
970,-350,16756,57,31,24,243
978,-364,16792,60,28,29,243
958,-392,16828,60,28,22,243
988,-366,16756,62,28,45,243
978,-366,16784,57,22,32,243
1006,-380,16824,60,34,36,243
984,-356,16774,55,26,28,243
984,-376,16770,58,31,42,243
996,-356,16770,70,33,35,243
986,-336,16816,59,36,46,243
974,-340,16812,55,28,46,243
976,-368,16764,64,33,38,243
1002,-358,16778,62,23,34,243
970,-350,16788,65,26,47,243
986,-330,16786,68,27,42,243
978,-350,16756,61,25,37,243
960,-344,16800,59,28,48,243
968,-368,16790,55,26,51,243
984,-344,16802,60,23,29,243
1012,-372,16786,58,20,36,243
986,-360,16792,62,25,42,243
972,-356,16822,59,28,35,243
1006,-364,16804,65,31,32,243
986,-344,16760,65,27,35,243
992,-334,16804,66,32,53,243
994,-340,16784,64,29,36,243
986,-360,16802,64,25,38,243
1002,-350,16778,72,17,35,243
1016,-342,16792,60,24,46,243
1002,-354,16816,67,14,40,243
996,-350,16796,64,31,36,243
1002,-328,16766,67,35,38,243
1000,-336,16800,58,24,37,243
978,-358,16820,56,25,39,243
998,-356,16806,57,21,31,243
974,-386,16754,57,32,35,243
1020,-364,16796,58,25,36,243
1004,-366,16804,64,22,39,243
958,-354,16814,57,19,32,243
970,-368,16764,60,24,40,243
978,-356,16770,60,18,31,243
976,-358,16824,64,28,37,243
970,-352,16832,57,28,30,243
994,-390,16772,65,17,42,243
1000,-336,16782,65,34,33,243
986,-368,16818,70,19,31,243
978,-340,16790,52,22,44,243
986,-364,16788,59,24,50,243
984,-338,16762,71,14,46,243
1014,-366,16792,61,18,37,243
988,-366,16804,62,16,34,243
980,-370,16780,60,12,32,243
984,-358,16786,53,32,39,243
992,-350,16812,64,32,52,243
996,-336,16792,67,36,39,243
990,-366,16774,67,25,35,243
984,-366,16760,57,16,25,243
982,-338,16818,56,14,35,243
978,-330,16810,60,26,28,243
984,-344,16764,60,17,34,243
988,-376,16766,59,21,32,243
984,-322,16814,58,21,39,243
988,-334,16800,57,16,40,243
964,-350,16768,66,33,37,243
990,-346,16768,61,32,38,243
970,-360,16774,64,41,38,243
982,-358,16776,57,39,40,243
986,-350,16772,64,18,42,243
982,-334,16770,55,15,34,243
984,-366,16810,61,27,32,243
1004,-348,16788,58,17,32,243
996,-352,16774,65,20,30,243
984,-348,16786,66,28,42,243
982,-352,16814,55,32,34,243
976,-340,16800,64,28,42,243
986,-342,16762,75,22,32,243
976,-378,16806,61,34,35,243
1012,-334,16816,63,35,33,243
978,-350,16800,60,28,35,243
986,-352,16778,68,28,30,243
976,-370,16800,57,13,30,243
982,-366,16792,66,16,40,243
998,-366,16806,69,32,25,243
964,-366,16760,60,32,37,243
992,-346,16794,59,22,42,243
1006,-348,16834,64,25,36,243
978,-346,16820,64,32,21,243
1002,-378,16788,56,34,31,243
1008,-362,16788,60,26,32,243
984,-344,16812,67,30,35,243
984,-358,16786,64,26,39,243
984,-336,16796,58,19,25,243
984,-352,16778,55,26,32,243
992,-344,16802,65,21,32,243
992,-338,16790,59,13,39,243
1002,-380,16742,60,21,37,243
1000,-360,16810,60,32,25,243
1002,-384,16800,68,28,32,243
988,-358,16814,62,35,34,243
998,-336,16766,55,27,35,243
992,-356,16822,57,22,39,243
964,-368,16794,69,30,36,243
974,-352,16780,61,29,36,243
992,-334,16756,66,18,32,243
998,-356,16794,57,21,31,243
990,-352,16814,63,28,38,243
992,-338,16816,64,24,35,243
970,-330,16750,61,33,23,243
970,-362,16778,56,29,27,243
1004,-352,16772,59,32,39,243
986,-330,16794,56,18,34,243
992,-336,16754,62,25,33,243
982,-336,16784,60,29,42,243
992,-358,16798,61,27,39,243
972,-370,16814,62,13,30,243
992,-376,16748,63,27,35,243
1012,-388,16780,61,25,38,243
988,-328,16806,66,25,33,243
990,-322,16796,52,35,35,243
980,-354,16764,66,33,31,243
992,-350,16798,60,25,28,243
980,-362,16806,63,28,29,243
972,-364,16776,66,21,31,243
982,-338,16796,58,28,34,243
978,-364,16762,65,28,32,243
1010,-366,16822,59,17,17,243
978,-348,16800,66,25,35,243
984,-332,16784,61,29,25,243
998,-348,16802,66,28,32,243
1012,-330,16800,60,33,32,243
992,-350,16782,59,32,35,243
962,-360,16772,60,34,29,243
994,-370,16814,50,37,36,243
986,-362,16814,67,25,32,243
1000,-346,16812,60,21,29,243
966,-352,16742,58,16,35,243
982,-358,16788,62,27,31,243
956,-364,16838,60,17,32,243
986,-352,16782,65,36,28,243
982,-372,16778,60,34,31,243
1000,-338,16778,63,31,37,243
968,-370,16816,60,29,27,243
978,-356,16788,58,30,36,243
990,-328,16736,65,30,35,243
982,-372,16794,54,25,30,243
974,-370,16808,60,22,31,243
1008,-352,16802,60,17,32,243
992,-346,16750,58,7,33,243
952,-350,16778,60,25,32,243
966,-354,16812,60,29,32,243
986,-364,16816,58,29,25,243
978,-342,16778,60,28,35,243
1000,-358,16804,60,28,39,243
1000,-348,16800,56,25,35,243
996,-344,16810,57,29,21,243
976,-374,16762,61,28,35,243
978,-370,16792,64,25,30,243
996,-336,16802,60,21,27,243
1008,-358,16784,69,17,39,243
996,-344,16798,64,16,32,243
1000,-314,16796,58,34,17,243
996,-356,16804,54,32,20,243
992,-354,16782,60,35,32,243
992,-344,16774,59,27,23,243
998,-350,16786,52,31,22,243
998,-352,16814,51,22,3,243
982,-350,16796,54,24,19,243
972,-354,16774,61,31,9,243
992,-346,16814,56,21,17,243
1006,-366,16814,60,17,11,243
1014,-362,16826,70,27,15,243
986,-340,16744,49,19,21,243
998,-368,16770,57,21,10,243
960,-376,16808,56,40,15,243
962,-344,16790,51,29,5,243
994,-360,16780,59,28,26,243
988,-360,16792,52,22,25,243
990,-350,16822,57,26,15,243
984,-344,16808,49,15,23,243
982,-384,16768,64,25,21,243
982,-360,16812,52,20,28,243
1002,-366,16806,54,24,25,243
984,-330,16792,50,25,20,243
964,-334,16748,40,22,-1,243
984,-382,16772,60,33,-8,243
1000,-354,16792,51,33,-15,243
986,-348,16806,50,34,-11,243
984,-374,16764,48,31,-5,243
992,-366,16784,50,22,-12,243
994,-344,16790,55,25,1,243
1004,-358,16764,57,24,8,243
988,-394,16790,55,22,10,243
984,-350,16784,50,29,3,243
996,-350,16796,61,30,15,243
972,-352,16780,52,35,21,243
976,-356,16746,67,21,21,243
994,-334,16786,62,39,18,243
1002,-366,16792,59,32,19,243
1000,-354,16806,61,28,32,243
978,-368,16764,58,21,28,243
1002,-366,16792,62,21,36,243
1000,-380,16800,58,15,26,243
998,-352,16806,65,31,35,243
974,-360,16770,69,16,26,243
982,-374,16770,66,29,32,243
984,-364,16814,62,25,29,243
974,-340,16798,49,32,37,243
948,-364,16772,58,29,32,243
986,-372,16800,61,27,33,243
998,-372,16814,67,31,38,243
970,-340,16794,61,32,34,243
1026,-350,16770,60,23,42,243
1000,-368,16794,56,16,26,243
976,-342,16800,60,14,32,243
988,-336,16800,50,18,28,243
996,-374,16750,67,20,28,243
982,-380,16798,53,37,36,243
1000,-340,16808,57,35,39,243
986,-340,16806,57,23,40,243
976,-350,16756,64,30,26,243
1004,-336,16786,65,32,35,243
986,-358,16792,64,25,39,243
990,-350,16784,58,15,39,243
984,-344,16794,70,16,36,243
988,-370,16814,57,17,33,243
964,-356,16806,56,24,29,243
978,-368,16822,58,25,32,243
1006,-372,16770,71,34,32,243
992,-326,16806,64,23,42,243
960,-356,16808,57,26,39,243
990,-358,16796,75,35,36,243
972,-350,16784,64,21,28,243
970,-370,16814,57,30,32,243
1000,-374,16786,59,24,32,243
974,-350,16792,61,29,40,243
988,-362,16782,58,28,35,243
992,-370,16792,63,17,32,243
986,-358,16782,62,37,29,243
984,-356,16794,62,29,32,243
982,-372,16778,55,36,39,243
990,-378,16814,71,27,39,243
1002,-372,16796,64,32,40,243
966,-336,16792,62,35,34,243
964,-372,16776,60,17,33,243
994,-374,16788,54,21,38,243
992,-360,16814,60,28,30,243
1006,-344,16762,60,27,25,243
984,-376,16772,57,28,34,243
972,-380,16804,64,26,36,243
1000,-368,16800,58,33,28,243
988,-372,16784,57,27,36,243
1000,-348,16762,64,46,35,243
966,-350,16780,56,35,14,243
994,-362,16830,53,22,11,243
978,-400,16816,54,24,7,243
964,-350,16762,54,25,7,243
960,-366,16780,44,23,1,243
1006,-344,16800,49,20,-27,243
964,-358,16796,49,28,-21,243
980,-380,16750,48,25,-16,243
994,-344,16814,48,28,-14,243
966,-380,16792,49,29,-24,243
972,-344,16792,42,35,-35,243
974,-342,16750,46,32,-23,243
972,-352,16800,43,42,-18,243
978,-370,16816,32,34,-35,243
974,-376,16784,35,17,-33,243
1012,-342,16770,48,21,-15,243
978,-332,16804,48,18,2,243
978,-370,16790,44,26,-1,243
980,-352,16768,46,36,3,243
984,-376,16772,51,34,-15,243
978,-362,16792,46,29,-50,243
974,-338,16808,35,34,-42,243
996,-350,16814,50,23,-21,243
984,-372,16768,62,16,13,243
990,-364,16790,62,35,26,243
994,-358,16784,60,30,17,243
984,-378,16794,67,28,33,243
990,-364,16784,51,17,20,243
982,-378,16778,53,25,23,243
962,-366,16814,52,30,22,243
990,-360,16782,60,33,17,243
962,-348,16768,59,43,29,243
990,-362,16778,64,38,23,243
972,-350,16798,50,33,14,243
978,-376,16798,59,28,7,243
994,-360,16778,46,25,4,243
996,-352,16794,53,25,-2,243
960,-338,16786,45,29,-6,243
984,-366,16780,46,15,-22,243
1004,-338,16764,43,21,-12,243
992,-344,16792,49,31,5,243
988,-390,16838,60,32,-6,243
994,-348,16806,46,37,-11,243
964,-364,16740,50,28,-9,243
986,-374,16786,44,28,-9,243
1002,-372,16832,61,21,0,243
1006,-360,16802,53,32,7,243
1014,-388,16778,51,31,9,243
980,-380,16784,61,21,14,243
978,-384,16806,57,27,17,243
990,-364,16784,61,29,7,243
984,-344,16752,55,20,7,243
944,-362,16808,54,28,10,243
986,-352,16814,56,36,30,243
972,-374,16792,59,38,25,243
996,-372,16774,60,34,24,243
992,-368,16780,60,30,14,243
970,-344,16808,58,28,12,243
980,-370,16786,63,34,25,243
978,-360,16742,57,18,26,243
988,-360,16794,47,21,19,243
970,-394,16810,62,29,21,243
1000,-374,16792,62,23,20,243
984,-342,16788,55,23,12,243
964,-360,16820,60,30,10,243
976,-364,16828,56,33,21,243
984,-380,16818,70,35,25,243
990,-362,16784,59,28,28,243
978,-350,16786,67,32,24,243
1000,-376,16814,65,24,25,243
992,-366,16774,55,23,32,243
992,-362,16776,57,21,33,243
996,-326,16820,58,25,14,243
984,-382,16806,49,25,14,243
976,-380,16780,58,21,13,243
1000,-362,16756,59,31,10,243
1006,-356,16814,62,19,24,243
984,-368,16824,65,32,23,243
974,-360,16806,58,23,29,243
990,-380,16778,58,32,32,243
968,-358,16778,60,23,30,243
974,-380,16814,64,25,32,243
998,-350,16784,58,24,27,243
992,-360,16802,65,27,28,243
978,-354,16788,60,32,39,243
984,-366,16818,60,32,35,243
1012,-362,16784,69,28,36,243
964,-364,16774,64,37,33,243
986,-380,16806,63,37,31,243
994,-364,16826,64,21,31,243
976,-386,16792,61,30,32,243
944,-358,16756,67,18,35,243
956,-372,16786,67,19,16,243
984,-358,16804,60,19,39,243
986,-350,16786,70,15,32,243
976,-366,16782,56,25,29,243
986,-354,16784,58,31,25,243
986,-374,16804,68,32,29,243
968,-350,16794,56,36,34,243
982,-372,16770,63,35,21,243
988,-356,16800,65,36,29,243
976,-390,16800,59,34,34,243
1000,-362,16800,63,29,32,243
1000,-372,16738,64,21,38,243
992,-350,16800,60,28,26,243
976,-358,16794,65,15,22,243
988,-360,16796,53,23,27,243
1000,-366,16760,53,34,31,243
996,-368,16782,65,32,21,243
992,-362,16806,63,35,24,243
996,-360,16782,56,35,21,243
980,-376,16766,65,28,30,243
992,-332,16800,63,33,31,243
998,-358,16820,62,26,27,243
990,-360,16788,54,30,25,243
962,-364,16774,53,25,25,243
980,-356,16800,63,21,26,243
974,-340,16814,62,32,28,243
968,-378,16794,59,25,30,243
990,-374,16740,57,27,35,243
992,-368,16794,57,31,34,243
970,-384,16802,67,32,35,243
990,-380,16804,62,32,44,243
986,-380,16766,61,28,35,243
962,-350,16806,60,21,24,243
986,-372,16828,53,18,32,243
978,-380,16784,54,21,28,243
992,-386,16770,57,24,28,243
996,-378,16802,61,23,27,243
992,-380,16808,55,22,24,243
984,-356,16792,54,28,41,243
978,-352,16750,69,38,37,243
992,-364,16802,47,32,26,243
1002,-366,16824,64,36,28,243
972,-356,16786,61,31,28,243
978,-386,16778,69,22,30,243
992,-344,16780,60,30,26,243
992,-352,16812,60,27,34,243
988,-386,16800,57,28,31,243
958,-382,16784,71,27,28,243
980,-358,16792,67,30,33,243
1006,-356,16796,64,23,29,243
976,-366,16800,57,40,38,243
992,-368,16778,60,36,39,243
972,-358,16796,62,32,23,243
958,-380,16828,61,20,35,243
974,-350,16792,71,28,26,243
986,-362,16798,57,24,28,243
984,-344,16780,51,25,17,243
982,-352,16828,59,25,21,243
990,-396,16804,64,23,17,243
984,-370,16766,56,32,27,243
958,-394,16784,60,34,25,243
986,-386,16836,63,41,20,243
992,-360,16798,56,39,17,243
986,-330,16800,58,39,20,243
944,-324,16800,43,42,2,243
942,-322,16828,24,53,-55,243
906,-80,16794,-22,85,-97,243
940,-196,16778,-72,74,-35,243
916,-186,16834,-239,142,-182,243
720,304,16734,-379,175,-391,243
898,-444,16792,-790,228,-895,243
970,340,16794,-958,298,-1653,243
616,-616,16702,-1162,356,-962,243
806,944,16572,-961,484,-2012,243
1518,-2912,20172,-297,350,-1955,243
2050,-1212,15912,-375,334,538,243
1064,-112,16540,887,162,1161,243
992,-494,16606,1808,305,1201,243
-32,-1374,17482,1072,414,1517,243
864,-222,16880,321,-39,-2466,243
1186,-26,17006,477,-221,-404,243
770,-728,16826,237,-451,-375,243
1116,-240,16660,260,14,-947,243
984,-164,16706,378,282,158,243
1150,-350,16976,346,494,620,243
842,-422,16930,159,442,79,243
914,24,16934,103,267,486,243
872,-308,16712,44,-18,-144,243
818,64,16766,24,182,-87,243
494,-618,16614,-118,327,-525,243
828,680,16788,186,568,-686,243
884,-1352,16830,-104,214,-717,243
1078,-580,16584,-482,122,-1126,243
1230,-376,16786,-296,35,-522,243
1178,-280,16624,-111,133,75,243
956,-1146,16750,-222,338,46,243
958,-138,16816,-107,288,45,243
828,-536,16854,-168,167,-33,243
1128,-408,16864,-231,47,-325,243
932,-360,16744,-261,-92,-330,244
850,-216,16784,-340,-100,-636,243
694,-308,16722,-413,50,-980,243
670,298,16682,-294,253,-918,243
1346,118,16570,314,20,-874,243
730,-272,16764,578,154,548,243
444,-814,16956,437,234,339,243
974,32,16832,283,184,-763,243
892,-686,16650,99,160,65,243
850,434,16568,429,-66,-563,243
1450,-712,16812,671,-7,1250,243
740,-1022,17364,420,27,86,243
768,-600,16678,96,242,-1049,243
1404,-130,16926,297,142,-44,243
1550,-656,16932,369,-287,246,243
1110,-970,16806,364,-237,32,243
806,-16,16706,-75,-243,-621,243
824,-682,16778,67,235,-10,243
958,96,16750,104,-53,-545,243
570,-1200,16830,140,48,529,243
892,-720,16742,56,20,83,243
934,-350,16818,71,-36,39,243
954,-380,16758,64,7,35,243
910,-362,16806,57,68,37,243
938,-356,16780,67,30,41,243
928,-346,16818,63,35,37,243
906,-366,16808,60,17,27,243
918,-342,16812,64,23,38,243
904,-392,16742,62,35,30,243
944,-344,16774,62,34,30,243
954,-372,16816,66,28,44,243
910,-344,16832,60,9,36,243
908,-376,16782,67,29,38,243
932,-350,16798,63,51,40,243
942,-370,16820,72,46,43,243
928,-380,16822,64,20,37,243
934,-386,16784,72,0,45,243
928,-366,16804,63,-4,35,243
936,-364,16800,63,27,38,243
934,-364,16814,64,41,31,243
920,-394,16750,58,50,42,243
902,-350,16792,64,47,40,243
914,-382,16810,62,23,39,243
934,-358,16802,60,27,32,243
954,-350,16756,63,23,38,243
920,-372,16798,64,25,44,243
916,-346,16798,65,32,33,243
920,-352,16778,68,22,38,243
932,-354,16790,61,24,35,243
888,-344,16794,61,30,35,243
920,-368,16806,61,31,35,243
934,-390,16798,62,31,39,243
908,-366,16806,60,40,39,243
936,-336,16796,65,32,35,243
938,-358,16806,60,37,35,243
942,-336,16780,58,14,35,243
942,-376,16760,60,14,42,243
928,-358,16772,59,28,32,243
958,-368,16834,64,35,33,243
910,-362,16806,57,29,35,243
930,-360,16752,64,32,38,243
934,-350,16782,60,28,39,243
940,-392,16832,61,26,39,243
924,-354,16800,62,29,36,243
908,-358,16766,58,32,35,243
918,-384,16810,60,35,46,243
908,-370,16800,72,29,32,243
920,-372,16772,64,25,35,243
920,-374,16770,69,22,39,243
910,-356,16800,67,29,42,243
928,-372,16784,59,22,31,243
924,-390,16796,63,25,27,243
940,-362,16746,53,30,35,243
936,-350,16796,66,20,41,243
940,-370,16818,60,33,38,243
908,-364,16802,57,34,44,243
902,-392,16780,65,36,28,243
904,-372,16810,65,25,36,243
934,-338,16788,60,28,40,243
950,-344,16806,57,21,39,243
948,-368,16778,53,10,30,243
908,-368,16816,58,26,32,243
914,-366,16810,60,21,38,243
924,-332,16778,64,21,42,243
926,-382,16774,57,31,39,243
934,-366,16784,61,36,32,243
912,-364,16826,64,26,36,243
904,-358,16784,62,31,35,243
930,-350,16774,57,38,44,243
922,-366,16782,55,25,30,243
930,-344,16814,67,28,42,243
936,-348,16764,56,7,35,243
934,-330,16760,75,12,35,243
890,-370,16814,56,16,32,243
910,-336,16784,63,32,35,243
928,-360,16794,57,25,35,243
928,-370,16770,62,34,34,243
920,-346,16790,63,30,35,243
926,-358,16826,64,24,41,243
914,-366,16806,61,35,38,243
934,-366,16766,66,31,32,243
918,-348,16800,62,27,33,243
948,-382,16808,60,25,42,243
922,-380,16784,60,20,32,243
924,-368,16762,62,25,36,243
942,-374,16822,58,26,35,243
910,-342,16820,62,28,37,243
956,-372,16796,57,35,40,243
916,-372,16796,62,29,32,243
920,-358,16806,69,25,38,243
892,-364,16816,65,26,37,243
912,-364,16778,70,30,39,243
914,-350,16752,65,33,34,243
918,-350,16820,64,24,29,243
948,-364,16830,61,24,39,243
906,-366,16800,61,20,28,243
914,-342,16760,59,24,35,243
934,-352,16822,67,29,45,243
940,-362,16814,61,28,37,243
924,-348,16800,64,31,33,243
920,-366,16792,58,34,35,243
894,-354,16796,67,33,27,243
918,-372,16802,63,33,35,243
934,-352,16806,62,33,41,243
924,-370,16762,68,26,39,243
922,-332,16796,68,17,34,243
920,-360,16810,74,28,40,243
914,-366,16778,61,13,33,243
936,-358,16758,64,28,45,243
898,-374,16820,74,39,36,243
938,-386,16800,53,28,35,243
932,-368,16804,60,39,33,244
908,-360,16784,63,33,42,243
912,-358,16826,56,22,31,243
918,-344,16820,57,25,39,243
942,-374,16814,59,18,28,243
902,-374,16790,65,22,38,243
916,-368,16768,70,17,32,243
932,-352,16830,64,10,38,243
914,-366,16778,55,19,35,243
926,-364,16776,57,21,41,243
922,-352,16806,57,24,36,243
940,-366,16806,64,46,35,243
904,-382,16798,68,33,39,243
934,-332,16758,71,29,35,243
940,-340,16802,53,22,33,243
912,-350,16816,63,22,33,243
942,-328,16804,55,21,30,243
918,-366,16770,61,20,30,243
906,-358,16778,64,21,42,243
924,-336,16800,71,18,46,243
926,-354,16782,57,19,35,243
924,-372,16784,64,22,33,243
928,-366,16798,70,32,34,243
930,-354,16814,59,30,39,243
906,-370,16784,64,28,28,243
904,-366,16734,69,32,34,243
942,-358,16788,66,28,35,243
916,-368,16812,66,24,24,243
904,-324,16790,63,30,41,243
900,-352,16750,61,21,32,243
914,-358,16786,78,24,39,243
920,-372,16830,66,14,36,243
928,-372,16790,65,17,35,243
910,-358,16778,58,30,33,243
940,-372,16816,64,38,41,243
926,-344,16812,68,31,40,243
936,-372,16776,64,36,34,243
928,-366,16786,66,35,35,243
906,-372,16806,60,30,35,243
920,-366,16814,64,32,32,243
926,-364,16782,57,25,28,243
944,-380,16770,61,19,36,243
920,-372,16798,64,32,35,243
928,-334,16806,66,36,36,243
918,-386,16790,64,27,32,243
906,-362,16766,57,25,28,243
920,-350,16802,59,30,35,243
916,-366,16834,58,28,29,243
928,-326,16804,58,32,39,243
924,-340,16802,66,32,28,243
928,-346,16820,67,29,43,243
934,-364,16802,58,28,38,243
934,-358,16770,52,20,31,243
924,-350,16782,63,19,29,243
934,-364,16784,66,24,35,243
936,-356,16824,64,21,39,243
914,-352,16806,63,27,42,243
914,-362,16790,63,35,36,243
926,-366,16812,67,35,37,243
906,-372,16834,63,29,23,243
906,-358,16774,61,26,39,243
914,-356,16782,64,23,42,243
934,-360,16814,61,26,44,243
912,-358,16830,61,25,31,243
944,-364,16798,68,22,37,243
932,-366,16774,67,24,40,243
928,-366,16792,64,35,32,243
906,-380,16798,67,31,40,243
920,-360,16800,60,26,32,243
900,-372,16780,60,33,39,243
908,-346,16834,65,35,39,243
908,-372,16820,65,30,26,243
910,-374,16780,67,20,36,243
934,-374,16792,65,16,29,243
934,-380,16802,67,20,40,243
908,-368,16822,66,13,37,243
958,-350,16784,62,26,43,243
950,-376,16768,66,34,46,243
924,-346,16842,61,28,39,243
910,-362,16816,61,33,42,243
920,-344,16800,61,35,44,243
934,-384,16784,67,23,38,243
914,-336,16790,67,38,30,243
928,-350,16798,60,32,36,243
920,-354,16804,71,27,40,243
944,-358,16774,57,25,34,243
928,-352,16814,61,21,32,243
926,-336,16806,58,21,36,243
920,-386,16800,65,29,38,243
920,-352,16782,65,28,40,243
910,-374,16828,64,40,42,243
910,-324,16850,62,28,45,244
920,-366,16788,72,35,33,243
946,-350,16778,67,35,35,243
926,-370,16806,60,28,28,243
914,-366,16820,58,34,39,243
934,-370,16798,69,26,36,243
906,-366,16780,71,20,39,243
926,-386,16806,60,10,32,243
928,-366,16816,58,19,37,243
914,-356,16792,64,17,42,243
928,-370,16770,60,25,32,243
914,-348,16800,65,20,53,243
902,-360,16828,71,25,28,243
918,-354,16802,62,18,30,243
932,-380,16778,71,33,36,243
912,-362,16810,62,30,37,243
928,-342,16806,60,34,37,243
934,-370,16802,60,30,39,243
948,-356,16780,63,20,36,243
906,-354,16822,64,13,32,243
922,-360,16822,53,14,39,243
912,-358,16798,63,29,32,243
936,-358,16762,64,30,32,243
934,-362,16804,60,37,43,243
936,-378,16802,50,40,39,243
928,-372,16808,67,29,34,243
922,-390,16786,59,30,38,243
930,-362,16794,59,24,42,243
896,-362,16830,74,32,29,243
914,-348,16784,66,20,32,243
940,-366,16810,68,20,41,243
926,-364,16812,63,21,31,243
908,-368,16822,61,28,38,243
910,-342,16804,64,33,33,243
944,-386,16776,63,35,37,243
912,-354,16820,60,39,24,243
914,-344,16828,62,31,40,243
914,-356,16814,50,28,34,243
934,-342,16784,59,22,42,243
916,-376,16800,64,21,32,244
942,-344,16838,62,16,35,243
898,-350,16762,64,25,46,243
938,-366,16780,60,24,32,243
930,-354,16800,62,22,35,243
934,-358,16818,61,32,31,243
920,-358,16788,67,28,46,243
924,-358,16772,53,39,35,243
920,-368,16818,62,32,40,243
906,-370,16792,67,32,48,243
914,-380,16800,64,28,36,243
908,-386,16748,64,23,40,243
916,-358,16806,60,21,39,243
918,-364,16834,65,23,30,243
920,-374,16804,62,27,38,243
920,-350,16796,67,21,41,243
900,-364,16794,69,22,27,243
954,-358,16834,67,32,42,243
914,-348,16786,68,32,25,243
914,-364,16784,56,34,43,243
920,-362,16834,65,32,41,243
918,-368,16824,60,31,34,243
908,-360,16796,60,28,44,243
922,-346,16788,59,21,37,243
928,-344,16820,64,23,34,243
902,-382,16800,60,20,39,243
908,-366,16782,64,20,35,243
948,-406,16800,62,23,47,243
944,-388,16792,64,27,46,243
916,-366,16842,59,29,35,243
912,-350,16802,67,32,30,243
932,-380,16790,59,41,32,243
898,-386,16816,67,31,35,243
928,-350,16820,64,29,40,243
902,-390,16798,54,22,41,243
920,-364,16786,63,32,38,243
912,-352,16788,63,28,39,244
916,-346,16826,54,19,28,243
896,-360,16784,62,27,44,243
918,-356,16784,53,27,34,243
914,-358,16824,74,32,35,243
934,-350,16828,64,25,35,244
908,-352,16784,57,36,36,243
918,-344,16762,61,28,38,243
908,-338,16802,60,36,29,243
918,-368,16848,65,21,42,243
930,-346,16786,66,21,31,243
928,-374,16778,63,18,30,243
940,-358,16806,60,21,39,243
912,-360,16850,68,30,39,243
938,-380,16792,57,29,34,243
930,-386,16778,59,28,48,243
910,-340,16800,60,21,40,243
926,-370,16814,73,31,37,243
912,-350,16792,63,26,42,243
934,-348,16770,66,29,35,243
940,-332,16810,67,37,34,243
920,-376,16848,68,28,32,243
914,-354,16814,71,30,32,244
914,-344,16762,72,24,39,243
938,-360,16832,64,28,36,243
910,-376,16800,55,17,38,243
938,-380,16808,64,29,33,243
932,-346,16774,58,28,39,243
914,-354,16824,63,32,41,243
950,-350,16840,64,28,40,243
920,-368,16802,52,26,36,243
910,-348,16778,59,28,36,243
910,-344,16806,68,32,41,243
928,-366,16824,62,27,42,243
934,-366,16806,60,14,33,243
928,-358,16820,64,20,41,243
916,-344,16800,61,21,39,243
918,-352,16812,61,26,32,243
916,-360,16794,64,25,29,243
920,-360,16780,64,29,36,243
934,-358,16834,60,35,36,243
912,-366,16820,55,33,31,243
906,-364,16810,61,50,32,243
920,-352,16774,67,31,35,243
922,-376,16820,59,26,39,243
892,-350,16828,58,21,37,243
928,-348,16806,60,23,30,243
914,-380,16790,62,25,39,243
914,-370,16828,56,28,39,243
928,-342,16842,53,28,32,243
892,-380,16794,64,28,32,243
928,-358,16792,58,35,50,243
922,-352,16824,67,32,38,243
934,-360,16808,53,36,38,243
926,-344,16786,67,35,39,243
920,-332,16756,57,42,45,243
940,-358,16820,67,33,35,243
928,-360,16826,62,25,43,243
910,-366,16792,66,26,26,243
892,-364,16788,67,20,40,243
892,-368,16820,62,24,43,243
914,-388,16836,59,25,40,243
928,-358,16792,63,32,29,243
916,-360,16784,69,24,33,243
908,-350,16810,63,29,38,243
910,-366,16828,59,27,35,243
914,-364,16792,62,35,39,243
932,-366,16770,64,25,39,243
932,-374,16800,72,24,39,243
930,-376,16814,61,14,43,243
946,-370,16784,62,25,33,243
944,-354,16812,58,22,36,243
934,-350,16800,62,25,45,243
908,-368,16824,57,21,39,243
938,-378,16788,64,21,34,243
954,-342,16788,67,25,42,243
912,-368,16824,63,30,46,243
934,-346,16828,59,35,36,243
940,-322,16764,64,17,28,243
928,-358,16792,62,25,33,243
944,-356,16846,63,24,32,243
922,-356,16828,65,21,39,243
908,-338,16810,58,19,35,243
922,-364,16782,57,30,28,243
918,-354,16822,64,25,30,243
930,-384,16824,68,25,25,243
934,-356,16786,62,25,42,244
910,-354,16774,66,32,43,243
910,-372,16834,69,40,42,243
930,-362,16820,58,40,39,243
916,-372,16798,50,28,35,243
912,-374,16784,64,27,32,243
926,-362,16790,68,24,35,243
944,-338,16816,59,27,37,243
900,-388,16770,61,25,36,243
914,-408,16792,64,26,34,243
934,-372,16810,57,42,30,243
916,-376,16806,53,31,32,243
926,-372,16784,59,31,37,243
920,-366,16764,56,32,39,243
938,-346,16820,71,31,34,243
910,-358,16794,62,33,44,243
912,-344,16774,64,26,35,243
936,-350,16774,60,30,41,243
902,-358,16834,53,20,35,243
944,-366,16806,67,16,35,243
928,-380,16770,64,28,32,243
908,-394,16774,65,28,36,243
924,-364,16834,70,28,43,243
942,-342,16806,62,23,34,243
938,-358,16782,52,29,34,243
926,-370,16768,66,24,34,243
884,-360,16814,65,31,38,243
906,-366,16822,57,31,43,243
934,-366,16782,54,24,42,243
928,-360,16794,55,21,32,243
924,-358,16796,61,18,34,243
930,-340,16820,61,20,42,243
924,-358,16800,54,21,40,243
908,-350,16782,62,19,28,243
940,-372,16818,65,39,33,243
900,-362,16828,60,41,42,243
928,-380,16778,53,40,33,243
932,-370,16802,54,30,24,243
912,-352,16824,62,30,40,243
928,-350,16800,62,28,32,243
910,-352,16764,62,26,41,243
928,-336,16800,67,24,38,243
908,-354,16808,56,20,39,243
906,-350,16814,53,20,47,243
928,-352,16766,65,17,42,243
920,-346,16778,64,25,35,243
924,-372,16856,72,25,45,243
920,-358,16816,64,27,39,243
946,-350,16792,63,41,46,243
914,-376,16792,68,35,36,243
932,-354,16808,67,28,30,243
906,-354,16832,51,33,36,243
930,-372,16798,55,32,37,243
906,-358,16790,64,25,37,243
934,-382,16804,61,19,42,243
900,-356,16818,60,24,39,244
912,-400,16770,60,27,28,243
930,-372,16772,58,29,44,243
908,-330,16790,61,40,35,244
916,-348,16836,62,29,45,243
926,-362,16810,57,38,32,243
894,-350,16808,53,26,37,243
920,-372,16824,60,27,30,243
920,-324,16814,60,30,44,243
914,-372,16770,60,29,35,243
900,-342,16790,75,17,32,243
906,-366,16820,58,20,38,243
914,-360,16814,55,25,42,243
920,-376,16754,57,19,32,243
922,-374,16780,64,33,42,243
926,-352,16808,67,30,36,243
922,-380,16828,65,32,42,243
928,-376,16800,60,32,40,243
934,-372,16778,63,34,37,243
914,-340,16788,60,34,39,243
936,-378,16814,57,32,37,243
920,-372,16812,60,25,32,243
908,-376,16774,58,13,46,243
916,-336,16806,59,23,34,243
924,-374,16824,65,32,44,243
930,-378,16778,64,27,37,243
934,-352,16794,60,26,29,243
920,-350,16820,62,29,33,243
908,-330,16834,60,35,39,243
904,-346,16794,62,34,41,243
912,-348,16772,66,33,21,243
904,-350,16810,64,23,35,243
914,-348,16808,69,30,41,243
914,-344,16806,60,23,37,243
912,-356,16760,64,17,30,243
914,-348,16796,56,22,37,243
924,-354,16804,57,24,35,243
914,-366,16784,69,20,29,243
914,-344,16788,57,30,35,244
914,-344,16810,63,29,36,244
902,-364,16828,64,28,42,243
918,-350,16792,67,35,34,243
918,-354,16788,64,37,27,243
916,-402,16800,54,28,35,243
908,-366,16828,65,27,27,243
922,-336,16808,57,27,32,243
898,-384,16790,65,25,39,243
930,-366,16822,57,14,42,243
928,-366,16798,63,21,36,243
908,-380,16778,68,25,41,243
936,-360,16768,72,26,39,243
930,-368,16808,66,36,46,243
910,-380,16816,54,25,46,243
910,-374,16804,62,32,43,243
928,-364,16784,56,29,35,243
930,-376,16804,60,28,35,243
920,-348,16856,64,16,35,243
936,-372,16794,57,18,41,244
922,-344,16770,62,17,32,243
910,-362,16824,62,13,30,243
908,-354,16814,67,27,35,243
924,-394,16774,64,27,43,243
914,-354,16784,75,29,38,243
938,-362,16798,70,33,39,243
916,-372,16812,58,35,30,243
928,-372,16802,56,28,39,243
940,-360,16776,69,38,35,244
934,-356,16820,61,28,47,243
922,-366,16828,61,21,33,243
934,-374,16808,60,10,42,243
930,-340,16770,64,26,39,243
938,-374,16814,62,24,35,243
932,-358,16854,59,27,32,243
910,-358,16776,58,25,35,243
934,-376,16778,63,28,37,243
920,-364,16816,58,28,37,243
928,-364,16816,64,33,39,243
908,-364,16814,57,31,34,243
914,-368,16770,53,24,35,243
934,-372,16816,75,32,42,243
924,-372,16820,59,24,35,243
906,-350,16770,59,19,38,243
908,-362,16760,69,18,40,243
920,-352,16846,59,17,35,243
928,-386,16814,59,23,44,243
898,-374,16790,58,21,38,243
910,-344,16780,60,35,44,243
920,-356,16800,68,28,42,243
932,-358,16828,60,33,40,243
928,-324,16788,61,32,42,243
894,-390,16776,65,29,37,243
914,-356,16802,67,28,43,243
922,-372,16842,65,32,42,243
916,-350,16780,65,8,32,244
958,-372,16800,63,24,37,243
934,-370,16820,61,27,40,244
902,-380,16836,61,22,28,243
920,-374,16782,59,26,32,243
900,-350,16770,59,28,45,243
928,-358,16806,62,27,35,243
920,-350,16828,56,35,35,243
928,-354,16778,65,33,29,243
918,-380,16798,59,28,38,243
930,-362,16820,69,31,29,243
928,-340,16816,57,19,35,243
922,-376,16782,61,21,40,243
918,-364,16794,62,28,45,243
920,-394,16820,60,27,42,243
894,-350,16816,67,21,34,243
904,-368,16786,57,21,35,243
916,-380,16780,67,33,34,243
906,-352,16816,66,37,40,243
926,-350,16828,68,35,40,243
904,-344,16794,58,35,38,243
900,-350,16806,60,28,36,243
912,-348,16806,59,37,42,243
914,-354,16832,63,27,42,243
906,-358,16766,56,26,43,243
924,-354,16782,53,17,46,243
926,-348,16812,71,28,29,243
902,-352,16814,71,23,32,243
930,-358,16778,64,28,38,243
904,-330,16764,53,32,47,243
914,-370,16834,57,32,25,243
920,-370,16816,64,30,35,243
916,-342,16778,67,33,36,243
912,-374,16786,72,28,32,243
934,-334,16804,60,21,37,243
900,-380,16832,61,32,35,244
944,-372,16778,52,32,34,243
908,-372,16800,62,22,40,243
924,-364,16810,64,21,40,243
928,-340,16830,56,31,31,243
944,-376,16770,77,24,40,243
908,-362,16764,66,33,37,243
900,-352,16836,60,35,41,243
922,-360,16814,66,43,47,243
920,-360,16778,58,32,50,243
914,-322,16770,66,19,32,243
914,-350,16820,67,21,46,243
920,-358,16822,62,19,33,243
914,-368,16792,64,26,42,243
918,-366,16766,64,28,44,243
914,-368,16806,69,25,36,243
928,-358,16846,61,28,40,244
918,-362,16792,64,32,50,243
902,-372,16796,61,40,27,243
928,-328,16810,64,31,40,243
914,-366,16812,68,45,35,243
932,-360,16776,54,42,33,243
922,-316,16792,57,22,25,243
928,-396,16784,57,17,37,243
922,-336,16834,60,27,34,243
936,-360,16768,63,25,42,243
924,-372,16782,51,25,37,243
914,-364,16810,57,22,46,243
900,-358,16820,66,28,41,244
898,-342,16788,60,25,42,243
922,-380,16782,60,32,34,243
928,-386,16806,55,35,35,243
918,-350,16814,54,30,41,243
956,-364,16768,56,32,34,243
914,-362,16810,65,25,38,243
942,-362,16806,66,25,39,243
920,-322,16806,61,28,34,243
934,-370,16796,64,38,41,243
924,-382,16788,58,22,41,243
928,-362,16810,64,26,41,243
932,-366,16796,68,28,42,243
922,-350,16798,64,20,36,243
918,-356,16800,66,34,39,243
918,-356,16822,62,44,33,243
912,-354,16828,65,30,38,243
910,-338,16762,61,30,44,243
920,-350,16798,72,29,34,243
932,-358,16814,71,27,35,243
920,-360,16814,71,32,38,243
906,-360,16790,64,28,41,243
928,-330,16786,66,24,28,243
924,-374,16798,65,25,36,243
924,-348,16834,67,20,36,243
928,-380,16774,56,25,34,244
942,-372,16792,62,35,42,243
920,-372,16804,65,31,42,243
880,-370,16848,69,34,36,243
924,-350,16774,64,30,32,244
896,-358,16820,54,17,34,243
932,-340,16816,67,21,31,243
914,-350,16824,67,22,32,243
910,-358,16800,57,27,44,243
912,-368,16804,68,19,42,243
914,-342,16800,65,26,37,243
934,-350,16806,60,28,30,243
920,-354,16804,63,25,39,243
910,-364,16788,56,28,46,243
934,-336,16832,56,29,42,243
900,-368,16812,57,37,35,243
930,-366,16784,64,28,36,243
914,-368,16808,64,28,36,243
910,-344,16830,60,25,35,243
914,-340,16824,69,34,39,243
922,-380,16790,53,14,27,243
928,-372,16802,66,25,41,243
920,-348,16804,57,17,43,243
916,-364,16818,59,23,32,243
926,-376,16776,57,39,30,244
914,-352,16790,65,28,39,243
914,-344,16820,66,36,36,243
914,-360,16830,60,28,41,243
912,-386,16784,57,27,28,243
920,-344,16770,67,28,47,243
900,-366,16800,60,25,32,243
920,-354,16814,58,21,35,243
920,-350,16778,62,27,32,243
916,-332,16778,58,27,25,243
914,-370,16830,60,17,37,243
930,-360,16824,60,31,42,243
920,-370,16786,57,35,35,243
928,-348,16784,66,30,36,243
932,-376,16800,66,30,25,243
904,-358,16814,64,32,46,243
914,-372,16774,61,22,35,243
938,-344,16790,67,25,37,243
908,-358,16806,63,29,28,243
926,-352,16822,59,25,39,243
960,-366,16766,66,18,41,243
910,-356,16784,63,25,39,243
914,-348,16806,63,25,42,243
928,-380,16816,73,32,42,243
916,-366,16784,65,42,37,243
916,-358,16796,56,35,39,243
942,-370,16814,70,29,40,243
908,-366,16808,56,42,45,243
942,-362,16756,61,35,39,243
928,-352,16810,64,29,38,243
954,-370,16812,58,22,46,243
920,-364,16814,66,28,45,243
928,-380,16770,71,20,43,243
938,-366,16792,65,23,42,243
912,-330,16820,67,28,36,243
922,-350,16810,60,24,36,243
910,-350,16788,64,29,32,243
922,-378,16770,60,34,42,243
898,-346,16806,64,35,36,243
936,-370,16816,57,31,40,243
914,-358,16788,67,27,39,243
924,-364,16792,61,35,32,243
922,-306,16826,64,29,38,243
940,-350,16814,61,21,42,243
934,-364,16778,64,26,42,243
912,-384,16774,70,17,48,243
930,-374,16820,70,25,35,243
918,-354,16816,61,28,41,243
922,-354,16784,64,35,36,243
940,-386,16802,64,30,34,243
926,-362,16810,66,31,32,243
910,-354,16804,58,28,39,243
930,-374,16806,67,34,37,243
912,-358,16804,62,27,34,243
924,-378,16804,60,25,41,243
906,-336,16804,55,21,36,243
930,-382,16762,61,23,44,243
908,-360,16782,70,23,37,243
924,-358,16832,66,30,50,243
932,-360,16804,69,24,43,244
930,-354,16778,59,25,32,243
908,-386,16784,67,32,35,243
926,-386,16806,60,32,46,243
908,-392,16836,68,36,38,243
922,-336,16792,60,26,37,243
914,-348,16794,57,31,42,243
900,-360,16820,60,25,25,243
914,-370,16810,65,23,34,243
924,-390,16780,60,28,33,243
916,-338,16804,61,25,37,243
912,-340,16822,58,34,40,243
914,-358,16832,62,22,39,243
900,-344,16780,64,25,28,243
906,-372,16794,67,27,27,243
918,-354,16800,62,37,30,243
920,-372,16806,56,32,39,243
916,-364,16808,75,32,44,243
910,-366,16788,66,33,33,243
916,-346,16820,59,31,28,243
920,-368,16834,57,26,30,243
920,-366,16778,66,26,42,243
928,-344,16820,67,31,46,243
940,-358,16816,60,23,32,243
922,-368,16814,67,27,36,243
894,-370,16798,60,27,43,243
924,-342,16778,61,28,36,243
920,-380,16818,64,35,32,243
920,-364,16808,64,35,39,243
906,-360,16784,66,31,31,243
912,-366,16794,67,22,24,243
920,-342,16806,67,25,35,244
918,-352,16830,64,33,30,243
914,-358,16760,67,33,42,243
902,-366,16792,61,30,42,243
932,-372,16826,53,31,39,243
930,-358,16820,68,17,32,243
914,-354,16780,65,33,33,243
906,-372,16778,64,32,37,243
924,-390,16794,69,43,40,243
914,-366,16818,63,33,41,243
918,-348,16784,60,27,37,243
896,-376,16786,60,23,45,243
900,-344,16808,63,31,34,243
906,-358,16806,57,29,35,243
910,-384,16772,59,32,28,243
916,-358,16806,60,28,39,243
900,-370,16820,66,23,35,243
890,-332,16800,67,25,39,243
928,-358,16784,62,20,42,243
892,-358,16796,57,23,37,243
908,-352,16816,53,35,43,243
910,-378,16822,64,38,36,243
920,-372,16792,56,35,23,243
934,-356,16778,62,37,33,243
934,-376,16838,59,33,46,243
908,-362,16806,62,22,32,243
934,-350,16764,62,33,39,243
906,-374,16780,54,26,39,243
922,-380,16840,61,17,38,243
898,-356,16850,69,31,34,243
914,-374,16770,60,38,39,243
934,-364,16784,56,28,42,243
920,-378,16814,58,34,38,243
942,-362,16826,64,34,31,243
942,-356,16790,64,27,38,243
910,-348,16792,64,32,39,243
894,-372,16812,63,29,31,243
910,-374,16814,64,36,32,243
910,-362,16776,60,28,42,243
920,-360,16788,60,26,32,243
904,-342,16810,62,24,38,243
930,-316,16828,58,28,36,243
934,-380,16788,60,20,32,243
918,-358,16766,68,36,41,243
924,-354,16818,55,33,37,243
928,-346,16810,68,31,36,243
906,-346,16764,63,28,35,243
934,-360,16800,59,32,34,243
928,-354,16794,67,24,36,243
928,-364,16818,67,24,39,243
916,-372,16786,60,28,37,244
914,-360,16772,66,21,40,243
920,-390,16814,76,24,38,243
904,-350,16814,63,28,27,243
930,-380,16764,57,27,32,243
932,-362,16792,56,28,30,243
942,-360,16806,67,22,37,243
928,-370,16828,60,31,32,243
910,-384,16790,51,27,42,243
904,-374,16792,57,32,35,243
886,-370,16808,56,36,33,243
926,-336,16810,60,40,42,243
934,-322,16780,63,21,28,243
914,-358,16778,64,25,42,243
924,-352,16802,71,29,35,243
906,-362,16838,59,23,39,243
904,-350,16788,68,29,32,243
906,-368,16784,57,30,32,243
922,-352,16804,58,32,46,243
916,-346,16796,60,33,34,243
912,-336,16772,55,33,34,243
906,-354,16804,67,25,38,243
924,-364,16848,57,25,38,243
936,-362,16806,59,21,37,243
914,-352,16778,67,29,42,243
920,-368,16788,53,28,46,243
920,-350,16806,54,25,34,243
912,-368,16806,66,22,39,243
918,-336,16778,60,23,29,243
916,-370,16794,64,25,39,243
916,-372,16824,61,25,40,243
904,-386,16826,63,23,35,243
906,-358,16796,71,35,44,243
936,-354,16780,64,35,37,243
918,-346,16814,57,28,35,243
914,-344,16836,59,29,44,243
900,-376,16768,58,28,32,243
916,-354,16800,64,39,44,243
920,-340,16826,61,28,39,243
910,-366,16818,65,34,40,243
936,-358,16798,69,25,35,243
910,-368,16798,65,31,34,243
910,-372,16834,60,24,39,243
920,-364,16798,67,29,35,243
892,-366,16768,64,35,35,243
908,-360,16818,65,36,44,243
930,-348,16820,68,30,40,243
896,-344,16828,67,29,39,243
906,-366,16784,55,14,34,243
930,-346,16770,62,30,25,244
934,-388,16824,67,25,35,243
932,-370,16834,68,28,28,243
934,-380,16772,63,33,34,244
922,-372,16790,67,35,33,243
932,-336,16834,67,35,39,244
918,-374,16804,59,30,37,243
914,-356,16758,71,26,39,243
918,-364,16782,57,38,39,243
928,-336,16828,63,32,35,243
894,-388,16846,66,28,37,244
926,-352,16778,54,28,29,243
908,-364,16770,67,23,32,243
938,-352,16830,58,18,35,243
924,-340,16814,60,24,31,243
912,-364,16796,68,25,40,243
928,-372,16788,68,30,39,243
930,-400,16810,61,30,35,243
920,-366,16830,64,28,42,243
920,-358,16768,64,21,34,243
942,-368,16790,60,32,52,243
906,-364,16792,60,35,42,243
924,-350,16814,76,40,28,243
916,-384,16786,68,33,40,243
918,-342,16800,69,19,39,244
924,-364,16826,62,20,28,244
896,-382,16816,69,24,25,243
908,-372,16800,60,29,47,243
912,-364,16792,63,15,37,243
940,-358,16814,68,26,37,243
910,-364,16820,62,29,53,243
916,-384,16772,60,22,42,243
918,-358,16762,65,34,46,243
926,-358,16822,57,35,36,243
926,-358,16848,66,33,35,243
898,-370,16792,66,22,32,243
892,-362,16792,68,26,49,243
906,-344,16826,61,28,44,243
936,-364,16844,71,29,46,243
928,-392,16780,57,25,39,243
934,-380,16800,70,32,45,243
914,-370,16826,59,21,36,243
906,-406,16834,64,30,28,243
924,-364,16796,62,24,21,243
896,-374,16814,69,38,40,243
906,-348,16830,57,37,39,243
928,-358,16802,57,39,34,243
928,-360,16800,67,27,38,243
934,-336,16770,56,39,28,243
942,-356,16774,70,129,36,243
910,-370,16876,60,109,37,243
914,-344,16776,62,19,35,243
900,-336,16792,74,-2,26,243
898,-366,16800,66,-26,38,243
914,-344,16812,61,-7,32,243
920,-374,16770,63,35,39,243
922,-352,16780,56,64,39,243
920,-366,16804,71,62,43,243
910,-380,16850,57,39,26,243
934,-358,16802,62,15,40,243
884,-386,16800,58,23,35,243
932,-334,16806,67,16,39,244
924,-358,16806,60,14,30,243
942,-366,16766,72,32,43,243
906,-348,16756,60,28,25,243
922,-340,16824,63,35,35,243
918,-358,16820,63,25,27,243
900,-330,16774,67,21,34,243
908,-360,16780,67,29,32,243
914,-358,16824,64,28,43,243
908,-350,16812,50,36,29,243
920,-334,16772,67,39,35,243
908,-340,16796,63,23,47,243
920,-372,16796,65,25,42,243
920,-336,16826,60,22,32,243
916,-366,16752,56,31,35,243
942,-370,16762,60,27,46,243
928,-360,16828,66,35,39,243
928,-380,16798,65,31,29,243
912,-360,16780,66,28,35,243
890,-354,16804,59,25,30,243
918,-370,16820,64,28,35,243
936,-366,16812,60,32,31,243
920,-368,16804,66,29,38,243
904,-350,16806,63,22,37,244
926,-360,16820,56,15,42,243
920,-366,16808,66,23,32,243
916,-346,16778,64,32,35,243
914,-352,16786,66,32,23,244
916,-340,16794,67,28,35,243
910,-358,16816,63,32,36,243
928,-348,16776,60,34,32,243
926,-362,16782,66,29,42,243
942,-376,16814,59,32,38,243
920,-354,16814,64,32,39,243
924,-370,16784,67,25,41,243
906,-362,16796,70,28,36,243
912,-370,16814,67,28,37,243
910,-384,16824,53,26,46,243
928,-364,16756,60,32,35,243
912,-332,16828,63,23,32,243
906,-358,16828,66,26,32,243
940,-358,16822,62,19,40,243
932,-372,16782,61,28,37,243
928,-376,16802,57,30,33,243
924,-372,16824,62,35,35,243
910,-352,16816,53,35,34,243
890,-360,16784,64,28,41,243
914,-368,16808,68,30,46,243
912,-372,16804,59,26,39,243
908,-358,16806,63,36,38,243
904,-336,16770,64,29,35,243
924,-370,16778,58,37,33,243
926,-372,16836,56,19,38,243
928,-362,16824,62,21,40,243
912,-344,16776,53,27,39,243
910,-360,16796,62,27,33,243
908,-372,16840,62,24,34,243
922,-358,16806,57,28,40,243
888,-360,16784,61,33,33,243
906,-344,16790,58,30,33,243
918,-368,16816,57,20,36,243
914,-352,16820,58,26,32,243
926,-372,16782,67,22,39,243
916,-370,16826,61,26,50,243
914,-364,16814,63,25,33,243
904,-374,16820,59,24,32,243
934,-380,16776,67,34,40,243
914,-368,16802,67,32,42,243
914,-350,16822,65,25,35,243
920,-358,16800,60,32,31,243
916,-376,16800,70,25,35,243
914,-386,16792,65,22,42,243
906,-352,16806,60,32,35,243
914,-370,16812,59,29,28,243
930,-326,16788,60,34,37,243
918,-340,16820,57,29,36,243
900,-350,16822,62,30,29,243
924,-374,16808,62,17,38,243
918,-356,16768,67,23,42,243
918,-370,16816,60,29,37,243
920,-376,16820,63,33,43,243
906,-358,16810,60,35,38,243
922,-382,16776,68,28,38,243
922,-372,16810,60,35,35,243
904,-378,16814,59,32,26,243
920,-368,16828,50,30,32,243
900,-376,16800,62,35,50,243
910,-372,16800,60,29,39,243
880,-330,16822,63,29,31,243
900,-358,16792,50,32,35,243
908,-358,16766,64,25,25,243
890,-386,16772,59,25,39,243
916,-334,16820,56,29,37,243
922,-372,16826,60,27,35,243
894,-376,16776,58,29,29,243
912,-350,16790,60,29,42,243
912,-362,16804,67,31,34,243
906,-372,16826,61,27,34,243
896,-356,16780,69,32,38,243
940,-370,16812,57,28,38,243
918,-344,16820,53,16,40,243
904,-366,16818,65,29,35,243
894,-358,16788,75,18,40,243
916,-350,16794,55,34,45,243
904,-358,16858,61,29,35,243
912,-358,16820,67,34,35,243
908,-348,16780,58,20,42,243
922,-368,16814,63,22,38,243
886,-372,16818,58,18,32,244
900,-402,16834,62,35,35,243
920,-366,16768,56,34,35,243
920,-374,16814,55,21,35,243
908,-358,16834,62,31,39,243
882,-374,16804,62,28,35,243
934,-350,16798,71,27,33,243
922,-360,16792,67,32,46,243
916,-372,16814,60,33,35,243
920,-380,16824,62,31,47,243
914,-374,16786,58,28,29,243
928,-358,16816,64,21,32,243
900,-366,16818,52,39,33,243
902,-334,16824,69,30,39,243
898,-358,16806,61,29,35,243
926,-368,16796,57,20,45,244
906,-356,16830,67,31,39,243
906,-376,16814,73,25,35,243
940,-338,16772,62,17,39,243
914,-392,16792,71,30,35,243
916,-342,16826,53,25,30,243
934,-358,16840,63,21,34,243
914,-330,16760,59,24,32,243
934,-364,16796,63,26,36,243
904,-380,16826,57,28,34,243
896,-374,16820,70,29,32,243
930,-378,16786,64,23,39,243
894,-380,16820,64,18,31,243
906,-372,16814,52,31,42,243
918,-356,16828,67,25,39,243
924,-372,16788,64,35,38,243
906,-360,16816,60,36,30,243
932,-350,16830,64,28,39,243
926,-356,16814,59,26,36,243
892,-390,16782,67,26,39,243
910,-348,16800,57,21,35,243
916,-350,16808,56,27,36,243
892,-350,16800,58,26,30,243
918,-358,16784,68,27,30,243
918,-394,16812,64,32,39,243
906,-372,16828,64,27,35,243
904,-344,16832,57,33,35,243
906,-358,16796,63,26,32,243
914,-366,16792,64,26,42,243
900,-376,16836,61,24,40,243
922,-372,16820,66,28,35,243
924,-350,16792,60,16,46,243
934,-344,16816,67,21,43,243
900,-348,16798,57,31,36,244
902,-338,16842,68,30,40,243
912,-380,16782,55,30,35,243
916,-378,16800,67,28,42,243
914,-342,16818,58,32,37,243
892,-352,16810,63,21,38,243
900,-370,16768,59,26,37,243
922,-382,16814,63,27,39,243
916,-352,16844,70,24,41,243
906,-366,16822,60,24,29,244
924,-350,16752,58,27,41,243
928,-374,16798,64,26,36,243
928,-394,16806,71,33,37,243
914,-366,16820,57,34,32,243
904,-354,16782,65,30,34,243
900,-346,16814,59,28,38,243
920,-372,16814,57,25,33,243
906,-344,16838,59,31,42,243
906,-372,16762,61,32,33,243
934,-354,16800,64,25,35,243
938,-374,16804,66,22,51,243
902,-364,16828,68,14,34,243
950,-356,16772,67,21,34,243
914,-354,16800,59,26,35,243
894,-382,16820,63,26,29,243
904,-356,16822,57,32,44,243
920,-344,16780,60,33,39,243
898,-350,16804,60,27,37,243
908,-364,16834,65,35,38,243
902,-380,16822,62,24,25,243
884,-344,16774,60,25,35,243
906,-340,16772,78,32,41,243
900,-350,16816,73,24,38,243
928,-362,16814,60,25,34,243
904,-350,16768,64,26,35,243
898,-358,16800,61,34,42,243
934,-344,16800,63,23,38,243
898,-380,16830,71,27,25,243
920,-336,16774,64,28,21,243
928,-344,16790,55,34,32,244
912,-348,16812,74,28,33,244
922,-360,16800,67,28,35,243
904,-372,16770,67,26,34,243
924,-366,16808,62,30,38,243
924,-358,16812,62,32,28,243
942,-374,16820,64,35,35,243
898,-328,16766,65,29,28,243
916,-368,16800,64,32,35,243
902,-370,16822,60,19,38,243
910,-358,16814,72,25,36,243
908,-344,16790,59,28,35,243
914,-358,16800,60,26,34,243
924,-338,16822,62,26,31,243
914,-368,16832,57,22,46,243
908,-358,16788,67,32,43,243
920,-358,16776,69,32,42,243
914,-366,16834,66,22,37,243
906,-366,16826,57,27,38,243
908,-372,16766,66,21,41,243
920,-354,16806,60,29,35,243
908,-380,16826,60,34,35,243
902,-366,16830,55,31,35,243
892,-370,16764,64,26,38,243
892,-360,16808,57,19,41,243
950,-384,16830,62,23,32,243
922,-368,16810,64,23,34,243
904,-344,16786,60,33,38,243
942,-350,16820,60,35,35,243
914,-358,16822,65,27,35,243
896,-366,16812,66,25,40,243
920,-382,16774,70,14,37,243
936,-354,16810,60,21,32,243
902,-380,16800,61,23,28,243
916,-366,16820,63,39,41,243
908,-370,16790,57,38,35,243
914,-358,16800,60,35,30,243
928,-378,16822,65,27,39,243
900,-368,16800,57,32,40,243
912,-356,16776,56,35,29,243
896,-342,16808,60,33,35,243
902,-344,16828,61,27,39,243
910,-348,16792,65,30,28,243
920,-378,16784,68,24,33,243
910,-352,16792,69,29,28,243
900,-392,16828,59,21,25,244
922,-350,16828,58,28,42,243
914,-366,16798,57,23,44,243
932,-362,16802,54,27,39,243
900,-348,16802,55,31,40,243
888,-368,16794,64,22,32,243
922,-350,16772,68,31,30,243
902,-366,16822,60,28,28,243
916,-340,16808,57,26,28,243
912,-348,16824,60,28,39,243
910,-376,16794,67,29,38,243
924,-370,16812,62,21,26,243
948,-330,16810,66,26,39,243
934,-360,16804,57,30,41,244
898,-370,16782,60,15,34,243
900,-350,16786,63,32,35,243
910,-358,16814,64,32,25,243
910,-362,16814,58,28,30,243
920,-360,16770,53,34,37,243
884,-370,16784,61,25,32,243
900,-358,16830,56,27,34,243
904,-366,16800,63,23,31,243
912,-362,16808,66,17,34,243
916,-352,16812,57,24,38,244
926,-394,16828,62,32,42,243
938,-374,16800,65,33,28,243
912,-366,16744,58,32,32,243
898,-350,16806,65,28,32,243
914,-372,16828,64,16,32,243
910,-376,16834,61,32,35,243
920,-366,16764,64,28,38,243
914,-368,16808,67,32,31,243
910,-354,16794,60,25,32,243
924,-356,16810,62,29,28,244
900,-354,16796,59,26,41,243
900,-366,16822,60,25,42,243
932,-386,16814,57,26,41,243
894,-358,16808,57,34,35,244
908,-336,16778,64,29,41,243
912,-376,16818,60,26,35,243
934,-386,16826,62,21,46,243
934,-374,16816,67,32,35,243
894,-352,16770,65,40,35,243
912,-376,16814,64,42,34,243
914,-358,16826,56,32,29,243
912,-350,16822,67,28,34,243
918,-348,16776,64,22,23,243
892,-364,16790,56,30,22,243
918,-358,16834,57,32,36,243
928,-368,16824,57,25,28,243
926,-386,16780,57,32,20,243
924,-360,16804,57,22,26,243
942,-356,16818,61,32,22,243
906,-350,16836,59,35,12,243
888,-376,16788,55,41,16,243
906,-346,16798,60,33,17,243
918,-372,16808,53,30,-3,244
888,-374,16824,44,28,-8,243
928,-358,16742,46,25,-19,243
874,-372,16820,39,36,-61,243
892,-374,16812,50,32,-61,244
918,-362,16822,33,31,-69,243
906,-348,16758,39,31,-72,243
918,-366,16806,37,29,-55,243
920,-364,16814,57,23,-27,243
944,-384,16812,51,35,-6,243
908,-378,16772,45,39,6,243
894,-330,16814,57,27,4,243
906,-362,16824,59,32,3,243
920,-376,16818,54,33,-2,243
928,-366,16774,55,32,16,243
936,-370,16796,57,33,19,243
926,-360,16836,51,27,30,243
888,-350,16820,53,20,28,243
914,-392,16776,64,29,28,243
912,-368,16808,61,26,24,243
912,-352,16802,60,30,28,244
910,-364,16810,65,21,32,243
914,-368,16758,60,38,24,243
900,-354,16812,57,28,39,243
900,-360,16824,60,33,27,243
902,-364,16802,64,30,38,243
936,-398,16770,62,31,35,243
934,-374,16808,54,24,25,244
928,-362,16824,60,31,39,243
890,-340,16832,60,32,33,243
908,-364,16772,64,38,22,243
912,-380,16824,60,31,29,243
930,-348,16812,64,22,28,243
922,-370,16806,60,33,32,243
952,-350,16778,63,35,39,243
912,-362,16816,57,35,27,243
918,-362,16840,60,25,27,244
908,-372,16814,60,36,34,243
894,-368,16778,61,26,30,244
910,-364,16818,70,31,21,243
898,-360,16832,66,25,28,243
904,-350,16788,60,33,41,243
936,-350,16792,62,35,28,243
906,-360,16792,67,26,28,243
902,-358,16808,60,21,38,243
906,-396,16820,63,21,32,243
892,-350,16768,58,35,31,243
920,-352,16800,63,28,31,243
920,-366,16836,67,27,24,243
918,-350,16842,64,28,21,243
914,-336,16764,67,29,32,243
922,-352,16790,53,35,39,243
904,-356,16802,54,43,35,243
908,-352,16780,60,81,39,243
920,-372,16790,60,70,39,243
900,-356,16798,69,25,28,243
890,-384,16798,55,9,28,243
900,-368,16806,67,3,35,243
900,-358,16768,62,5,35,243
886,-346,16792,60,28,32,243
892,-358,16812,66,42,29,243
920,-350,16820,64,38,28,243
912,-354,16772,65,32,39,243
944,-350,16798,57,25,35,243
900,-336,16800,60,22,38,243
914,-346,16834,66,19,28,243
890,-366,16762,58,21,34,243
916,-358,16846,67,25,38,243
904,-360,16822,60,39,42,243
900,-378,16792,68,24,39,243
922,-358,16790,61,34,36,243
906,-378,16806,58,25,33,243
894,-390,16824,63,25,23,243
920,-362,16814,64,30,39,243
920,-360,16776,53,28,34,243
918,-370,16804,64,32,34,243
906,-348,16802,71,28,33,243
920,-374,16806,62,21,29,243
922,-376,16766,57,31,38,243
914,-358,16800,63,21,36,243
932,-356,16814,60,28,37,243
922,-366,16798,58,31,32,243
908,-366,16756,58,34,35,243
920,-352,16784,67,22,33,243
928,-372,16822,61,27,25,243
934,-372,16816,65,24,33,243
912,-378,16778,56,28,36,243
942,-352,16800,57,21,38,243
910,-368,16796,58,27,38,243
918,-356,16822,57,29,27,243
906,-348,16800,60,31,27,244
914,-348,16800,57,20,35,243
912,-372,16816,67,32,27,243
920,-386,16816,68,30,37,243
914,-386,16772,68,37,32,243
910,-378,16800,58,28,32,243
914,-374,16806,61,25,35,243
910,-394,16808,60,15,27,243
916,-370,16756,58,31,39,243
920,-358,16816,66,39,37,243
918,-360,16794,57,25,43,243
924,-368,16812,66,33,37,243
924,-382,16792,67,24,43,243
902,-380,16792,64,27,37,243
918,-328,16838,60,25,39,243
890,-350,16798,65,30,39,243
924,-386,16788,60,35,29,244
884,-358,16812,64,18,42,243
920,-334,16834,53,20,23,243
914,-388,16828,64,40,31,243
906,-382,16800,57,25,28,243
920,-356,16788,65,30,44,243
902,-346,16806,60,32,34,243
886,-378,16794,53,21,29,243
920,-372,16788,61,25,37,243
924,-392,16806,69,28,27,243
916,-366,16820,61,32,35,243
922,-324,16830,60,33,33,243
920,-350,16784,68,24,30,244
910,-340,16800,62,34,35,244
920,-368,16820,60,25,33,243
928,-358,16792,59,26,28,243
908,-364,16770,50,33,29,243
904,-350,16772,66,18,38,244
906,-356,16816,58,29,31,243
904,-362,16800,60,32,35,243
924,-360,16778,53,28,25,243
876,-356,16812,59,32,36,243
912,-356,16818,66,30,46,243
906,-356,16788,64,27,32,243
900,-364,16800,56,24,24,243
914,-354,16802,59,21,34,243
898,-350,16824,69,27,41,243
910,-368,16814,61,32,29,243
902,-342,16792,58,21,39,243
914,-374,16800,60,25,32,243
892,-396,16822,60,25,35,243
914,-348,16806,61,32,31,243
924,-354,16792,68,30,32,243
910,-338,16818,66,28,33,243
928,-362,16824,52,25,35,243
928,-358,16822,60,25,38,243
920,-336,16764,63,25,26,243
906,-376,16814,61,35,33,244
930,-348,16800,57,30,29,243
878,-372,16790,57,20,35,243
940,-368,16790,60,25,46,243
896,-380,16800,65,25,35,243
922,-358,16846,66,28,32,243
936,-360,16832,66,26,39,243
926,-388,16790,58,32,35,243
938,-344,16808,60,28,34,243
924,-350,16800,64,23,30,243
926,-366,16800,62,21,41,243
900,-372,16794,57,26,37,243
914,-348,16806,52,25,39,243
920,-370,16800,67,32,41,243
904,-372,16808,69,27,37,243
914,-372,16794,65,32,38,243
922,-344,16790,63,37,37,243
906,-376,16818,57,25,32,243
918,-358,16802,65,31,32,243
904,-366,16776,61,17,28,243
916,-348,16826,70,30,28,243
892,-338,16830,69,31,32,243
914,-358,16814,72,27,36,243
900,-366,16780,60,26,36,243
892,-340,16800,64,21,32,243
920,-342,16820,57,28,32,244
946,-388,16824,60,33,39,243
920,-358,16786,68,31,30,244
906,-366,16824,54,13,25,243
908,-390,16858,64,18,38,243
904,-350,16800,60,25,29,244
892,-344,16766,60,32,29,243
902,-366,16800,66,37,36,243
942,-366,16806,59,28,30,243
920,-362,16796,62,25,33,243
914,-368,16780,59,24,37,243
902,-370,16804,63,29,32,243
898,-366,16794,56,33,32,243
920,-350,16802,60,23,38,243
928,-340,16778,59,30,32,243
912,-384,16832,64,21,41,243
940,-394,16816,64,26,39,243
934,-350,16838,66,29,31,243
890,-364,16766,58,32,32,243
912,-350,16792,71,27,28,243
918,-344,16812,63,36,39,243
894,-358,16816,69,21,28,243
912,-360,16764,63,35,33,243
908,-352,16796,64,24,19,243
934,-374,16812,61,28,39,243
878,-372,16816,63,31,31,243
920,-370,16770,64,21,32,243
918,-386,16788,57,26,28,243
918,-382,16848,53,35,28,243
912,-380,16786,52,33,25,243
918,-372,16770,61,32,32,243
908,-362,16800,59,31,25,243
902,-380,16808,58,33,23,243
892,-370,16800,62,25,31,243
900,-376,16758,58,35,17,243
914,-368,16800,63,35,30,243
920,-376,16806,62,28,14,243
904,-344,16802,59,19,17,243
876,-374,16760,61,19,21,244
884,-374,16826,68,31,26,244
906,-366,16844,67,32,25,243
900,-356,16790,63,21,30,243
896,-380,16746,58,19,21,243
912,-350,16828,59,23,25,243
904,-366,16820,60,26,17,243
920,-380,16798,54,41,16,243
928,-358,16786,51,32,26,243
920,-362,16828,53,28,14,243
906,-362,16820,59,17,17,243
904,-366,16810,55,25,26,243
914,-368,16796,57,28,29,243
898,-348,16816,60,29,12,243
910,-370,16802,57,25,21,243
904,-380,16800,56,28,30,243
922,-350,16776,60,20,21,243
906,-372,16796,59,29,15,243
914,-362,16814,57,36,28,243
920,-358,16818,53,32,16,243
920,-392,16770,67,31,21,243
896,-398,16806,57,29,10,243
912,-360,16834,55,24,13,243
910,-364,16772,66,27,7,243
914,-360,16776,58,28,14,243
908,-358,16818,56,36,19,244
902,-366,16818,57,25,33,243
906,-380,16798,61,28,5,243
932,-368,16806,60,28,27,243
912,-358,16790,49,28,7,244
900,-370,16800,58,25,18,243
912,-368,16828,52,29,10,243
906,-380,16760,57,28,6,243
912,-358,16810,53,28,24,243
920,-372,16828,57,41,21,243
890,-370,16814,65,20,20,243
914,-408,16776,54,22,21,243
918,-354,16804,60,22,25,244
904,-358,16816,68,31,25,243
902,-380,16820,58,17,23,244
932,-358,16764,59,22,25,243
916,-344,16806,57,25,32,243
904,-354,16814,57,26,26,243
918,-380,16768,55,32,24,243
906,-370,16766,56,35,31,243
890,-374,16850,57,26,29,243
922,-360,16826,55,22,36,243
920,-356,16804,69,25,32,243
926,-376,16756,65,27,27,243
906,-366,16800,58,33,35,243
910,-384,16832,58,25,32,243
910,-374,16778,53,22,31,243
918,-370,16782,62,27,24,243
900,-418,16810,64,21,29,243
918,-382,16846,58,32,27,243
922,-374,16822,52,35,28,243
908,-344,16780,57,32,19,243
916,-354,16806,63,25,24,243
896,-340,16814,66,30,24,243
896,-380,16782,48,21,36,243
910,-362,16800,68,24,27,243
900,-370,16804,75,25,17,243
922,-352,16830,60,20,23,243
910,-364,16794,59,28,24,243
894,-386,16776,60,24,14,243
914,-344,16808,58,21,26,243
922,-358,16826,60,32,26,243
890,-336,16804,58,28,21,243
912,-350,16786,60,27,21,244
892,-372,16800,51,24,21,243
906,-372,16834,51,33,16,243
898,-368,16804,62,42,14,243
894,-348,16770,54,33,13,243
920,-350,16782,49,43,9,243
906,-386,16830,52,25,-1,243
914,-382,16812,43,26,-22,243
888,-350,16770,39,29,-32,243
900,-344,16784,34,41,-54,243
882,-350,16806,17,37,-69,243
910,-344,16768,10,42,-104,243
928,-410,16774,-5,47,-86,244
946,-368,16796,24,35,-65,243
868,-376,16820,18,53,-55,244
950,-412,16800,24,41,-47,243
908,-352,16776,34,56,-25,243
900,-352,16816,49,32,-3,243
896,-368,16814,32,32,-11,243
892,-372,16820,28,39,-15,243
908,-350,16784,28,28,-26,243
908,-386,16816,42,32,-24,243
906,-350,16814,31,35,-27,243
896,-372,16800,41,42,-15,244
894,-364,16732,29,42,-10,243
878,-308,16800,28,47,-7,243
866,-284,16814,-4,60,-50,243
774,-244,16770,-57,78,-136,243
404,96,16724,-142,213,-490,243
394,406,16662,-275,383,-868,243
730,-644,17620,-425,689,-1103,243
410,496,16208,-592,386,-1784,243
674,168,17742,-458,896,-722,243
2324,-1236,17198,-761,163,-2207,243
3448,492,16238,-74,-132,-662,243
-284,-2244,16580,25,-161,864,243
1620,-326,16526,-143,285,-1143,243
456,-636,16788,-27,394,-29,243
672,-840,16920,-134,-133,-470,243
878,-258,16844,-195,-78,-656,243
826,-898,16804,-27,-300,-22,243
784,-860,16714,-39,-122,-218,243
914,-600,16828,64,67,33,243
878,-408,16800,73,100,38,244
862,-392,16796,64,121,35,243
870,-408,16830,61,28,31,243
874,-408,16806,60,12,35,243
920,-408,16782,60,-4,36,243
870,-402,16756,57,14,39,243
914,-414,16826,60,9,29,243
880,-442,16822,71,26,35,243
882,-408,16800,66,34,36,243
902,-414,16770,60,55,35,243
878,-416,16806,60,49,38,243
872,-428,16824,60,32,36,243
882,-394,16800,59,10,28,243
888,-422,16784,71,-4,24,243
888,-398,16808,65,2,30,243
900,-444,16808,65,21,28,243
882,-404,16788,55,34,18,243
900,-406,16782,67,32,20,243
890,-408,16784,64,34,18,244
868,-402,16818,63,42,20,243
892,-410,16832,59,46,22,243
876,-394,16798,61,50,22,243
882,-402,16784,71,44,7,244
862,-412,16814,58,26,7,243
872,-386,16790,74,14,-39,243
898,-414,16780,66,14,-34,243
878,-480,16788,61,33,-8,243
884,-410,16800,66,30,26,243
896,-444,16774,62,39,28,243
884,-416,16756,55,24,28,243
906,-426,16814,55,26,36,243
886,-434,16812,53,10,30,243
878,-408,16796,60,17,38,243
884,-400,16780,62,34,28,243
920,-440,16802,64,36,28,243
888,-410,16796,63,42,33,243
920,-428,16808,67,29,41,243
886,-430,16788,67,27,35,243
884,-420,16808,62,17,25,243
886,-412,16816,66,24,32,243
880,-430,16792,63,31,35,243
888,-406,16768,65,35,46,243
876,-418,16792,64,41,42,243
884,-434,16828,67,28,37,243
872,-424,16796,62,32,35,243
868,-422,16772,60,23,36,243
884,-410,16770,67,19,35,243
892,-438,16826,69,34,45,243
882,-410,16800,65,25,32,243
880,-416,16754,64,21,33,243
870,-406,16804,62,26,38,243
872,-438,16832,60,29,33,243
882,-430,16770,68,24,35,243
886,-418,16796,61,19,35,244
886,-408,16792,61,21,35,243
896,-408,16802,64,25,29,243
886,-422,16784,59,28,35,243
888,-438,16778,59,34,41,243
906,-448,16778,56,35,39,243
874,-436,16834,65,26,32,243
880,-426,16784,64,28,28,243
902,-428,16792,56,18,35,243
894,-412,16810,66,33,35,243
896,-422,16838,69,35,36,243
906,-386,16820,66,36,34,243
888,-410,16778,63,25,29,244
884,-412,16832,61,22,40,243
892,-422,16818,53,25,27,243
904,-418,16810,70,20,38,243
860,-412,16792,62,25,33,243
914,-408,16776,64,27,25,243
866,-386,16792,70,18,43,243
906,-406,16782,55,27,19,243
898,-432,16790,57,33,35,243
866,-414,16806,68,25,47,243
888,-448,16824,67,30,46,243
860,-422,16806,52,22,37,243
878,-422,16770,65,35,34,243
880,-422,16778,59,28,42,243
898,-432,16818,71,29,37,243
900,-416,16782,66,37,40,243
886,-408,16784,55,30,34,243
898,-416,16800,61,30,35,243
864,-426,16836,62,25,40,243
890,-394,16800,67,22,27,243
906,-404,16800,56,36,45,243
910,-410,16830,64,24,39,243
874,-416,16800,60,34,28,243
872,-422,16796,62,36,34,244
914,-420,16764,58,32,37,244
890,-364,16812,56,32,32,244
888,-416,16820,60,30,41,243
880,-430,16792,59,28,42,243
896,-404,16800,61,26,40,243
890,-410,16770,63,39,32,243
870,-422,16808,59,28,39,244
906,-388,16812,61,21,34,243
894,-404,16780,67,24,41,243
884,-386,16800,65,32,32,243
876,-434,16842,60,32,29,244
896,-422,16810,65,33,25,243
900,-414,16782,59,27,38,243
892,-376,16802,64,24,38,243
878,-428,16808,61,18,39,243
886,-410,16784,57,24,34,243
902,-440,16764,57,35,25,243
888,-424,16818,60,34,36,243
900,-436,16818,66,28,35,243
906,-410,16794,66,24,36,243
864,-400,16792,57,29,34,243
864,-416,16800,61,28,40,243
882,-414,16820,57,36,35,243
880,-442,16784,65,29,35,243
884,-430,16750,64,26,38,243
872,-412,16792,72,22,35,243
900,-452,16834,55,30,37,244
908,-400,16800,64,28,35,243
872,-404,16786,64,37,32,243
890,-422,16798,54,19,38,243
880,-404,16850,67,32,16,243
872,-422,16770,64,24,36,244
900,-426,16798,64,38,35,243
892,-412,16816,55,27,37,243
908,-416,16792,56,29,25,243
878,-416,16814,67,35,35,243
904,-392,16796,67,21,33,243
866,-402,16780,66,25,36,243
898,-432,16820,57,26,27,243
906,-420,16796,57,27,31,243
900,-382,16784,64,20,35,244
896,-422,16814,65,39,39,244
880,-422,16814,58,32,34,243
902,-430,16826,59,34,26,243
856,-430,16776,63,32,30,243
884,-418,16792,64,31,42,243
878,-420,16830,62,20,24,243
864,-408,16820,65,25,35,243
874,-422,16770,69,32,32,243
896,-416,16790,61,32,25,243
892,-424,16804,60,28,41,243
892,-394,16816,64,25,36,243
876,-416,16768,63,35,40,243
878,-398,16802,70,31,32,243
856,-408,16788,60,23,31,243
878,-420,16794,56,21,38,243
910,-430,16758,61,29,37,243
910,-436,16774,59,29,35,243
860,-398,16834,66,33,35,243
890,-418,16794,61,44,40,243
898,-426,16778,61,46,46,243
884,-410,16798,64,32,32,243
876,-388,16806,71,24,26,243
878,-400,16810,60,25,29,243
872,-408,16764,67,28,41,244
886,-414,16810,60,34,36,243
864,-396,16832,61,27,28,243
868,-430,16786,57,21,30,243
878,-402,16778,66,25,25,243
866,-420,16806,61,33,32,243
896,-420,16800,62,34,35,243
864,-430,16802,62,30,28,243
884,-430,16798,58,26,33,243
902,-438,16798,64,22,36,243
880,-402,16790,65,32,35,243
876,-436,16788,59,31,41,243
884,-388,16790,56,14,25,243
888,-424,16814,60,27,32,243
874,-430,16830,60,23,38,244
904,-416,16798,65,21,37,244
884,-414,16768,57,23,25,243
898,-422,16816,65,18,30,243
886,-400,16848,56,29,40,243
884,-400,16796,58,31,38,243
902,-416,16786,65,42,34,243
894,-444,16806,66,27,31,243
870,-400,16826,64,32,46,243
884,-410,16800,73,30,33,243
896,-412,16794,64,28,34,243
886,-404,16808,64,35,39,243
908,-410,16834,71,33,41,243
876,-418,16802,64,30,40,243
880,-390,16766,57,25,44,243
892,-400,16814,69,22,29,243
896,-406,16822,61,28,35,243
884,-420,16800,61,35,32,244
880,-422,16814,66,29,36,243
880,-380,16816,57,34,35,243
888,-404,16828,60,32,32,243
886,-416,16808,58,35,38,243
870,-428,16756,60,28,35,243
878,-422,16810,60,32,31,243
916,-444,16828,63,28,36,244
894,-436,16796,56,22,39,243
858,-394,16782,61,26,28,243
892,-408,16826,65,25,34,243
892,-410,16814,63,33,29,243
880,-440,16816,65,32,33,243
870,-424,16800,62,29,35,243
900,-412,16808,68,31,30,243
872,-400,16842,60,28,37,243
872,-392,16800,60,31,38,244
866,-404,16778,72,39,34,243
888,-426,16794,67,33,40,243
884,-416,16798,67,35,33,243
880,-406,16814,69,25,28,243
888,-430,16764,67,31,40,243
874,-424,16820,67,27,42,243
886,-424,16812,61,27,38,243
882,-398,16798,62,31,34,243
888,-426,16790,58,21,36,243
898,-394,16792,61,27,39,244
884,-394,16842,64,16,36,243
866,-434,16800,56,27,34,243
892,-438,16798,64,27,39,243
894,-374,16804,68,26,34,243
870,-374,16848,58,31,42,243
884,-394,16784,66,28,31,243
876,-408,16780,67,30,35,243
858,-428,16804,64,32,40,243
908,-408,16832,62,28,45,243
870,-422,16808,58,28,40,243
914,-430,16754,58,31,37,243
884,-396,16784,58,32,38,243
898,-408,16822,54,27,38,243
850,-386,16784,66,29,40,243
896,-424,16788,59,36,29,243
894,-402,16808,61,26,38,243
890,-410,16828,67,29,35,243
880,-430,16802,52,27,38,243
892,-434,16782,63,36,35,243
872,-386,16840,62,25,33,243
914,-394,16822,60,24,39,243
902,-416,16784,59,35,32,243
892,-410,16792,68,28,38,243
882,-406,16794,60,34,25,243
898,-410,16852,59,27,34,243
886,-428,16796,57,28,39,243
892,-386,16768,67,21,36,243
876,-408,16792,64,25,42,243
878,-410,16820,56,25,42,244
892,-408,16804,59,27,40,243
888,-414,16792,66,31,32,243
878,-410,16830,62,39,40,244
888,-380,16828,60,25,32,243
898,-402,16820,61,35,39,243
898,-426,16770,60,33,34,244
884,-392,16834,60,32,19,244
882,-400,16796,56,33,35,243
870,-428,16808,68,38,42,243
884,-400,16770,66,33,36,243
886,-400,16804,57,28,39,243
868,-388,16820,59,26,34,243
912,-404,16780,56,24,35,243
898,-410,16792,58,23,44,243
894,-416,16810,58,21,32,243
890,-430,16812,66,32,28,243
888,-422,16798,60,26,42,243
888,-420,16790,56,32,32,243
882,-402,16806,57,27,30,243
898,-432,16830,62,28,37,243
868,-422,16796,64,39,32,243
894,-400,16774,68,38,35,243
900,-444,16782,64,29,33,243
892,-408,16846,58,27,39,243
872,-416,16782,65,27,33,243
894,-420,16776,61,23,37,243
870,-430,16826,61,27,36,243
884,-372,16816,56,18,32,243
914,-424,16792,70,22,34,243
880,-418,16778,56,20,36,243
882,-400,16854,65,26,42,243
872,-394,16822,53,28,44,243
884,-430,16782,59,41,38,243
900,-394,16784,60,33,37,243
878,-426,16810,60,35,30,244
890,-392,16824,70,25,32,243
884,-408,16784,49,28,30,243
870,-408,16770,67,27,46,243
902,-402,16820,65,35,41,243
880,-430,16826,60,32,42,243
910,-428,16800,58,14,35,243
896,-440,16784,64,25,39,243
892,-412,16808,64,25,42,243
894,-400,16824,54,29,34,243
914,-416,16800,67,32,41,243
870,-430,16756,66,28,31,243
878,-448,16800,62,24,33,243
884,-426,16808,61,26,38,243
884,-410,16788,63,35,37,243
878,-400,16800,73,36,38,243
868,-418,16816,61,27,46,243
870,-412,16840,59,37,41,243
874,-424,16786,67,26,42,243
898,-420,16782,64,22,32,243
908,-414,16814,63,26,48,243
882,-390,16820,64,39,39,243
880,-422,16800,67,33,34,243
890,-420,16794,65,28,34,243
878,-404,16806,63,32,44,243
878,-400,16824,66,25,32,243
890,-406,16806,67,32,46,243
908,-400,16768,57,29,40,243
886,-394,16806,63,30,38,243
864,-392,16834,53,32,39,243
884,-404,16792,64,32,30,243
894,-402,16790,61,26,39,243
882,-416,16806,67,28,35,243
856,-408,16832,63,25,43,243
916,-436,16786,59,28,38,243
856,-400,16768,65,39,32,243
892,-406,16816,62,31,42,243
884,-418,16814,64,25,32,243
902,-394,16834,69,32,48,243
878,-402,16770,64,18,32,243
900,-416,16784,61,27,39,243
896,-402,16814,70,36,42,243
878,-422,16772,60,26,39,243
900,-460,16802,60,17,34,243
898,-416,16804,52,25,32,243
884,-416,16812,65,28,35,243
900,-436,16792,63,34,30,243
918,-418,16786,67,30,39,244
878,-430,16824,67,27,37,243
882,-440,16806,62,17,32,243
886,-428,16780,66,16,34,243
864,-422,16806,65,29,31,243
906,-416,16828,66,27,40,243
896,-400,16842,60,28,32,243
874,-406,16782,60,27,32,243
898,-420,16800,67,25,32,243
858,-416,16812,64,26,42,243
874,-394,16826,60,32,28,243
886,-424,16778,59,43,43,243
900,-400,16776,67,38,32,243
890,-382,16806,66,27,43,243
896,-404,16834,71,18,47,243
898,-422,16806,53,18,36,243
884,-442,16754,62,25,43,243
900,-408,16814,72,31,35,243
884,-406,16854,53,27,45,243
886,-428,16774,67,25,41,243
874,-422,16796,62,26,28,243
896,-412,16788,60,31,28,243
896,-422,16818,60,29,35,243
916,-414,16784,60,28,35,244
890,-422,16776,61,23,37,243
874,-408,16802,64,28,42,243
876,-422,16814,60,25,35,243
870,-420,16822,64,30,27,243
904,-404,16764,64,27,30,243
876,-416,16814,62,40,39,243
894,-386,16826,69,39,42,243
884,-408,16782,70,31,32,243
900,-386,16788,59,27,31,243
896,-410,16784,64,18,37,243
904,-394,16814,65,33,46,243
888,-406,16794,53,26,45,243
876,-410,16780,62,29,41,243
870,-446,16780,66,39,46,243
882,-400,16804,62,33,42,243
900,-408,16770,49,41,28,243
884,-416,16808,65,30,43,243
874,-430,16796,63,36,35,243
884,-430,16812,60,33,34,243
870,-402,16766,64,30,39,244
908,-422,16750,67,22,36,243
882,-398,16798,60,1,39,243
886,-420,16840,67,31,30,243
888,-422,16788,57,35,32,243
884,-444,16776,60,35,34,243
900,-426,16796,66,32,35,243
850,-438,16854,55,28,33,243
914,-422,16800,57,29,34,243
904,-410,16770,73,32,40,243
870,-416,16798,57,31,37,243
886,-420,16822,64,35,32,243
900,-388,16794,63,34,32,243
922,-380,16770,56,25,33,244
890,-398,16804,61,30,37,244
870,-418,16850,67,25,43,243
882,-420,16782,60,33,42,243
906,-408,16820,64,28,34,243
878,-386,16808,64,23,46,243
884,-408,16844,55,24,41,243
900,-422,16818,65,28,37,243
892,-408,16800,64,33,31,243
866,-396,16806,67,39,36,244
870,-400,16830,60,35,33,243
880,-442,16814,66,34,33,243
902,-416,16782,71,34,46,243
876,-400,16828,63,33,40,243
874,-402,16854,50,21,45,243
888,-408,16784,68,27,34,243
888,-422,16800,68,21,29,243
884,-428,16814,57,23,41,243
890,-412,16796,63,31,36,243
890,-408,16776,68,32,39,243
878,-394,16776,59,25,37,243
866,-430,16814,55,30,39,243
890,-420,16816,65,31,32,243
874,-412,16778,68,33,32,243
878,-406,16784,64,23,32,243
888,-412,16820,62,20,33,243
884,-424,16828,61,28,37,243
884,-420,16786,60,38,46,244
876,-414,16782,53,32,49,243
886,-414,16814,59,29,39,243
886,-430,16804,59,29,28,243
878,-452,16796,61,22,42,243
886,-414,16786,71,30,42,243
884,-402,16822,61,23,28,243
898,-414,16838,64,32,43,243
894,-430,16782,65,33,30,243
890,-422,16778,57,34,46,243
908,-422,16804,68,26,35,243
896,-414,16828,60,29,46,243
878,-392,16812,62,34,39,243
878,-408,16806,67,39,42,243
878,-414,16804,53,22,35,243
852,-404,16832,63,32,37,243
896,-430,16796,68,24,40,243
880,-424,16792,63,26,40,243
916,-434,16820,62,26,34,243
866,-414,16834,57,33,34,243
888,-408,16804,60,25,39,243
884,-416,16772,75,24,39,243
900,-446,16806,61,36,39,244
894,-426,16836,66,39,39,243
900,-404,16778,71,38,40,243
878,-430,16792,67,35,41,243
908,-422,16800,63,31,41,243
856,-414,16794,52,28,39,243
874,-408,16782,60,25,44,243
878,-394,16770,55,28,32,243
894,-428,16798,59,28,35,243
894,-428,16814,55,23,34,243
906,-424,16790,67,23,32,243
886,-420,16790,50,26,37,243
878,-416,16818,53,26,42,243
896,-412,16818,63,30,37,243
864,-420,16814,62,33,34,243
898,-430,16778,63,32,37,243
874,-414,16834,70,26,37,243
854,-416,16836,67,27,39,243
878,-438,16778,63,30,38,243
888,-414,16790,64,32,39,243
880,-426,16814,64,37,43,243
884,-410,16824,64,31,30,243
896,-392,16808,56,28,34,243
880,-376,16770,52,26,42,243
906,-406,16784,66,32,39,243
880,-416,16822,60,17,33,243
870,-404,16770,53,25,39,243
876,-406,16802,60,33,39,243
906,-432,16850,61,34,33,243
898,-426,16842,55,25,32,243
884,-402,16768,58,28,29,243
880,-422,16806,71,34,36,243
870,-416,16810,62,32,32,243
876,-412,16820,60,28,34,243
888,-382,16792,68,28,30,243
888,-394,16778,66,39,37,243
892,-420,16814,73,27,37,243
894,-424,16784,60,33,32,243
872,-424,16796,53,21,37,243
864,-402,16796,60,25,43,243
894,-422,16792,60,24,46,243
904,-416,16850,62,16,39,243
874,-404,16800,66,21,45,243
896,-400,16800,66,25,34,243
882,-410,16830,58,38,39,243
874,-402,16834,69,32,37,243
888,-416,16800,58,31,39,243
872,-430,16772,71,35,41,243
880,-380,16824,56,28,38,243
878,-402,16834,65,31,33,243
890,-396,16782,62,27,31,243
890,-400,16778,53,25,35,243
872,-408,16814,58,22,37,243
864,-412,16806,55,31,29,243
886,-436,16778,62,30,39,243
890,-410,16808,67,20,39,243
880,-424,16800,53,37,40,243
878,-418,16824,57,33,46,243
892,-414,16804,71,32,37,243
872,-388,16792,57,36,38,243
874,-444,16810,62,27,35,243
892,-402,16820,65,30,36,243
888,-412,16754,66,32,39,243
892,-402,16798,57,40,42,244
878,-422,16806,60,27,39,243
882,-442,16808,65,21,32,243
896,-404,16782,72,31,37,243
886,-430,16764,62,25,46,243
884,-392,16822,64,21,44,243
870,-418,16802,56,21,40,243
886,-400,16810,55,21,44,243
918,-416,16796,64,25,42,243
874,-386,16820,59,36,43,243
880,-396,16834,72,35,39,243
902,-428,16778,54,32,38,244
908,-400,16784,59,31,46,243
890,-408,16804,64,28,48,243
872,-418,16828,65,33,41,243
878,-416,16782,63,25,37,243
888,-416,16784,63,25,38,243
886,-416,16812,64,31,36,243
882,-386,16828,67,21,30,243
878,-416,16798,64,27,27,243
890,-416,16800,60,26,37,243
884,-394,16798,62,21,31,243
886,-412,16848,66,30,35,243
870,-410,16784,62,28,32,243
896,-432,16778,58,36,39,243
896,-400,16790,56,28,49,243
870,-408,16812,59,42,39,243
878,-450,16770,60,25,25,243
900,-424,16806,60,27,36,243
900,-430,16816,63,34,37,243
904,-414,16816,66,32,40,243
900,-420,16804,64,25,40,243
874,-412,16792,64,21,35,243
882,-434,16800,62,25,37,243
898,-408,16836,53,21,42,243
898,-422,16764,61,29,35,243
876,-418,16800,59,38,39,243
870,-430,16822,71,33,28,243
902,-388,16828,60,28,41,243
862,-408,16798,64,33,39,243
876,-414,16802,68,36,32,243
858,-416,16828,62,26,39,243
864,-406,16806,70,25,29,243
858,-402,16774,59,35,35,243
914,-422,16796,62,24,35,243
892,-432,16810,69,12,39,243
864,-436,16820,56,13,35,243
870,-434,16764,60,25,41,243
890,-436,16768,64,33,41,243
884,-408,16818,65,29,35,243
892,-410,16822,57,25,44,243
890,-404,16766,66,32,24,243
862,-406,16806,62,35,36,243
878,-430,16820,62,42,33,243
878,-450,16848,63,25,30,243
914,-398,16774,67,20,38,243
886,-412,16750,62,31,39,243
876,-430,16806,56,20,40,243
886,-406,16816,60,32,49,243
874,-426,16772,60,21,30,243
912,-400,16796,59,23,35,243
866,-402,16830,64,20,28,243
858,-400,16824,59,31,36,243
850,-410,16778,66,34,44,243
880,-422,16808,70,32,36,243
880,-396,16784,60,29,39,243
886,-416,16828,60,26,39,243
892,-408,16808,62,29,39,243
902,-418,16808,60,26,42,243
900,-418,16828,76,34,35,243
888,-412,16816,65,25,32,243
894,-378,16752,65,28,47,243
894,-418,16796,61,25,30,243
890,-408,16818,66,25,34,243
884,-414,16842,51,33,37,243
886,-408,16802,57,23,23,243
888,-404,16792,68,26,34,243
884,-422,16804,64,28,37,243
900,-436,16820,62,31,37,243
890,-386,16802,65,32,38,243
860,-410,16800,60,26,30,243
892,-398,16822,67,32,49,243
870,-394,16816,67,28,32,243
870,-412,16770,55,34,25,243
870,-430,16774,65,27,39,243
860,-418,16798,59,25,29,243
874,-398,16820,57,25,28,243
886,-408,16784,60,28,41,243
878,-428,16778,67,25,46,243
856,-414,16814,57,24,40,243
872,-400,16814,64,30,34,243
864,-424,16812,59,32,34,243
884,-400,16764,61,21,35,243
886,-420,16824,61,28,34,243
902,-408,16838,67,32,36,243
894,-410,16802,56,36,41,243
888,-428,16770,60,35,35,243
884,-450,16804,63,20,28,243
890,-408,16820,67,20,35,243
892,-416,16782,65,17,41,243
892,-404,16794,60,30,32,243
862,-440,16820,63,31,31,243
900,-416,16856,59,28,34,243
896,-424,16796,57,36,33,243
890,-402,16786,60,32,35,243
888,-430,16824,68,35,35,243
874,-428,16834,67,33,42,243
874,-444,16748,71,29,42,243
874,-398,16788,56,28,32,243
892,-388,16814,75,28,34,243
878,-406,16828,58,29,33,243
862,-414,16780,58,27,39,243
864,-424,16784,71,31,31,243
896,-422,16818,56,39,31,243
872,-410,16834,58,23,31,243
892,-432,16770,56,23,28,243
872,-430,16808,61,20,35,243
884,-408,16836,71,25,33,244
876,-408,16812,63,28,32,243
870,-430,16804,68,30,38,243
880,-416,16804,63,34,38,243
876,-422,16848,57,32,40,243
888,-406,16846,52,31,39,243
876,-416,16810,64,31,35,243
874,-424,16812,58,29,31,243
892,-408,16802,62,30,41,243
892,-424,16824,66,32,41,243
888,-418,16790,69,25,28,243
876,-408,16784,68,34,36,243
876,-384,16816,74,21,33,243
890,-408,16830,64,28,32,243
880,-412,16802,60,35,40,243
884,-406,16782,60,29,36,243
906,-436,16806,61,29,35,243
878,-420,16854,63,25,36,243
860,-422,16804,58,27,42,243
910,-434,16776,59,24,35,243
876,-406,16818,59,33,30,243
884,-420,16820,69,36,35,243
876,-430,16786,65,32,39,243
894,-424,16762,61,28,42,243
904,-432,16818,53,27,35,244
882,-398,16848,68,36,36,243
876,-440,16796,66,32,32,243
878,-436,16772,67,29,36,243
886,-434,16804,64,24,36,243
898,-408,16800,67,17,36,243
864,-408,16774,60,26,42,243
874,-422,16788,62,34,29,243
902,-430,16830,60,34,28,243
900,-392,16792,67,35,29,243
892,-404,16810,59,29,31,244
884,-428,16792,56,23,34,243
876,-400,16786,65,35,32,243
894,-438,16826,64,32,33,243
882,-420,16792,64,29,41,243
872,-402,16794,66,28,32,243
872,-416,16828,61,26,35,243
874,-418,16820,53,19,34,243
890,-422,16782,62,18,36,243
892,-408,16814,70,32,33,243
870,-442,16846,64,27,40,243
896,-414,16826,67,26,40,243
890,-416,16792,60,25,28,243
876,-418,16784,65,32,35,243
864,-390,16814,66,29,36,243
878,-414,16820,60,31,35,243
914,-430,16814,64,39,35,243
892,-416,16780,57,28,36,243
870,-398,16802,57,25,39,243
860,-416,16826,56,32,38,243
886,-404,16792,64,23,32,243
864,-418,16772,65,27,33,243
884,-424,16814,61,21,35,243
876,-408,16814,60,26,39,243
900,-416,16782,64,21,39,243
888,-420,16754,58,26,30,243
876,-418,16820,62,33,33,243
914,-400,16814,62,37,44,243
894,-438,16760,61,42,39,243
890,-410,16792,54,34,42,243
884,-418,16822,58,33,40,243
898,-412,16812,63,32,39,243
882,-416,16768,58,24,39,243
884,-396,16776,65,27,39,243
870,-408,16778,60,29,34,243
884,-448,16830,69,28,36,243
890,-436,16780,63,20,28,243
884,-394,16778,59,28,27,244
892,-422,16812,58,28,38,243
864,-408,16828,63,28,42,243
892,-402,16758,60,35,29,243
884,-400,16792,64,31,37,243
886,-408,16820,69,29,32,243
878,-412,16816,62,27,45,243
872,-416,16788,65,32,50,243
882,-410,16798,66,37,38,243
878,-418,16816,60,35,36,243
892,-420,16818,67,32,42,243
878,-434,16768,53,23,31,243
898,-404,16792,60,19,32,243
870,-416,16828,58,28,35,243
868,-422,16824,67,33,39,243
892,-408,16784,68,27,40,243
900,-400,16812,60,31,33,243
878,-392,16812,52,22,34,243
882,-420,16826,60,27,38,243
874,-402,16782,63,31,31,243
884,-420,16770,64,33,38,243
896,-436,16814,64,39,40,243
894,-422,16830,69,26,35,243
878,-412,16766,54,13,34,243
888,-410,16790,58,28,32,243
870,-438,16804,60,30,32,243
878,-416,16814,64,33,30,243
904,-428,16792,63,39,39,243
910,-420,16776,60,32,33,244
892,-394,16810,58,21,40,243
876,-430,16826,57,19,34,243
882,-420,16794,67,31,35,243
880,-444,16784,67,34,33,243
878,-424,16806,64,32,39,243
866,-398,16810,56,26,47,243
878,-410,16788,54,25,32,243
862,-404,16788,64,22,30,243
882,-400,16792,61,21,28,243
868,-394,16800,74,23,40,243
868,-422,16778,59,24,34,243
888,-414,16800,59,20,35,243
896,-432,16762,63,25,37,243
886,-422,16832,61,19,34,244
884,-384,16804,62,19,36,243
874,-396,16792,67,30,42,244
876,-432,16812,66,27,39,243
862,-394,16822,68,31,39,243
892,-440,16796,58,28,42,243
892,-412,16798,64,21,39,243
872,-418,16802,60,26,35,243
868,-394,16804,61,33,35,243
886,-434,16774,64,27,40,243
874,-432,16794,65,28,40,243
856,-450,16820,57,32,35,243
884,-408,16830,60,25,41,243
878,-426,16792,67,24,33,243
882,-424,16774,71,23,37,243
864,-406,16822,67,33,39,243
872,-402,16812,64,35,38,243
860,-408,16782,64,27,35,243
900,-432,16806,59,19,31,243
862,-436,16808,67,31,35,243
870,-458,16814,66,33,33,243
878,-434,16784,64,29,32,243
870,-440,16778,75,28,36,243
866,-406,16822,68,25,44,243
870,-410,16814,58,31,40,243
894,-420,16808,66,29,31,243
890,-424,16770,67,28,23,243
878,-410,16840,58,32,38,243
900,-410,16814,67,30,32,243
902,-400,16780,64,25,38,243
878,-414,16784,55,25,35,243
880,-400,16800,60,25,32,243
874,-400,16830,64,31,37,243
868,-430,16786,56,21,39,243
878,-432,16786,65,28,34,243
880,-406,16796,64,28,40,243
882,-418,16808,66,30,43,243
922,-450,16800,67,28,32,244
886,-412,16798,55,37,26,243
842,-392,16830,60,27,32,243
876,-416,16856,62,29,34,243
892,-418,16758,60,21,43,243
860,-412,16796,61,32,46,243
868,-402,16816,55,35,34,243
884,-418,16828,51,30,33,243
906,-414,16796,64,28,36,243
894,-434,16790,63,27,33,243
884,-422,16802,57,23,32,243
914,-416,16820,67,27,39,243
886,-394,16774,60,33,29,243
866,-422,16804,60,29,32,243
892,-404,16806,64,30,37,243
882,-404,16834,61,36,29,243
886,-424,16750,58,27,32,243
892,-410,16792,53,32,34,243
892,-428,16812,67,28,37,243
872,-436,16828,54,25,32,243
896,-402,16792,64,25,31,243
870,-428,16800,57,25,45,243
864,-428,16830,68,23,33,243
888,-412,16828,61,25,35,243
882,-420,16780,61,31,33,243
882,-416,16784,63,28,40,243
882,-400,16824,63,31,37,243
872,-444,16812,67,42,28,243
870,-400,16784,63,36,40,243
898,-398,16790,58,27,37,243
900,-412,16804,64,27,33,243
870,-430,16828,63,30,44,243
868,-416,16810,61,21,32,243
878,-410,16784,62,26,33,243
892,-416,16802,67,19,37,243
906,-414,16820,68,21,36,243
904,-434,16792,55,34,40,243
890,-418,16812,60,36,45,243
878,-428,16800,61,29,28,243
888,-406,16820,59,29,34,243
894,-422,16792,52,28,38,243
892,-424,16788,58,24,32,243
862,-426,16798,65,25,28,243
898,-404,16834,60,32,30,243
878,-420,16772,59,23,35,243
878,-430,16800,57,32,36,243
874,-414,16794,64,28,33,243
892,-394,16806,61,25,32,243
908,-408,16798,60,25,32,243
862,-406,16778,58,32,41,243
884,-422,16820,63,28,41,243
880,-408,16786,64,24,46,243
892,-436,16806,59,19,36,243
850,-440,16788,57,28,35,243
884,-426,16816,61,33,39,243
872,-438,16842,64,19,42,243
900,-426,16738,59,29,35,243
880,-402,16772,62,25,39,243
892,-426,16828,66,28,32,243
872,-394,16836,64,32,39,243
882,-428,16788,57,31,32,243
870,-416,16792,56,25,39,243
882,-406,16828,64,22,43,243
892,-420,16828,68,32,39,243
894,-412,16800,63,36,46,243
890,-426,16786,62,33,21,243
908,-422,16820,60,41,28,244
888,-422,16830,71,28,51,243
906,-404,16790,64,27,42,243
910,-404,16794,58,33,42,243
892,-408,16794,59,27,26,243
892,-396,16804,68,18,29,244
876,-406,16806,64,13,41,243
902,-404,16802,69,33,31,243
906,-416,16814,65,19,31,243
884,-410,16806,71,28,35,243
886,-408,16762,66,28,31,243
876,-394,16790,64,35,34,243
896,-416,16810,60,38,36,243
864,-418,16818,65,27,39,243
894,-404,16792,70,36,35,243
870,-422,16778,59,30,40,244
876,-424,16800,60,28,34,244
896,-374,16820,61,21,43,243
882,-434,16786,64,28,36,243
894,-398,16794,64,32,35,244
894,-416,16814,61,29,37,243
880,-394,16834,57,32,34,243
890,-418,16780,64,33,39,243
874,-430,16796,64,20,39,243
878,-416,16828,62,35,46,243
870,-450,16830,71,34,39,243
896,-404,16782,59,29,33,243
870,-436,16772,62,28,24,243
880,-436,16820,62,21,30,243
878,-424,16834,58,25,41,243
880,-430,16784,64,27,32,243
878,-436,16774,63,28,38,243
874,-414,16808,69,32,37,243
880,-402,16836,56,34,32,243
870,-432,16812,68,19,38,243
864,-402,16768,57,31,41,243
870,-408,16818,76,23,32,243
868,-426,16820,63,31,38,243
892,-420,16764,72,35,36,243
900,-408,16776,63,30,31,243
864,-422,16820,65,24,36,243
878,-430,16828,72,33,41,243
898,-428,16766,67,32,39,243
874,-422,16802,64,31,29,243
904,-426,16802,61,25,43,243
878,-406,16834,58,24,37,243
860,-414,16778,64,32,27,243
900,-412,16806,62,26,39,243
878,-446,16792,65,35,39,243
872,-430,16786,60,25,35,243
906,-388,16792,60,25,37,243
892,-408,16786,60,21,34,243
892,-400,16846,71,31,39,243
884,-428,16838,57,30,36,243
880,-422,16774,66,28,43,243
908,-448,16810,54,21,27,243
898,-404,16826,63,20,40,243
892,-416,16814,60,21,39,243
878,-412,16778,65,21,37,243
870,-430,16784,62,32,34,243
864,-418,16798,63,32,29,243
874,-418,16834,67,28,37,243
880,-412,16770,57,25,35,243
872,-406,16792,62,30,35,243
878,-426,16820,59,29,29,243
866,-422,16814,56,14,35,243
892,-400,16770,71,27,33,243
880,-418,16804,60,28,35,243
864,-422,16814,53,27,38,243
870,-414,16828,64,26,42,243
884,-430,16774,64,30,34,243
892,-378,16792,54,27,28,243
878,-400,16822,60,28,41,243
906,-398,16828,61,23,42,243
890,-416,16768,73,26,35,243
882,-424,16790,64,18,35,243
864,-422,16800,63,24,35,243
894,-414,16816,63,32,39,243
882,-404,16762,64,34,38,243
864,-418,16776,55,33,34,243
896,-424,16798,72,26,45,243
882,-430,16824,59,31,37,243
902,-416,16778,63,27,36,243
862,-420,16768,64,19,47,243
882,-416,16786,73,27,42,243
888,-426,16808,72,32,50,243
884,-400,16774,67,31,31,243
876,-422,16788,60,24,37,243
880,-414,16820,65,31,35,243
872,-446,16830,54,28,28,243
884,-410,16780,58,31,52,243
858,-400,16820,67,32,37,244
872,-416,16814,70,37,32,243
870,-436,16824,61,20,34,243
890,-406,16792,63,15,29,243
868,-410,16798,58,28,40,243
860,-412,16820,66,34,44,243
892,-390,16840,63,32,39,243
898,-408,16792,59,30,32,243
874,-412,16808,70,28,36,243
896,-420,16816,73,24,39,243
882,-410,16822,69,32,44,243
880,-422,16766,64,29,30,243
886,-424,16790,60,35,34,243
886,-404,16806,53,26,36,243
884,-414,16822,67,32,42,243
878,-430,16810,64,27,27,243
912,-396,16824,66,30,43,243
886,-410,16806,61,24,39,243
894,-416,16810,60,32,39,243
888,-402,16778,69,32,39,243
886,-412,16790,69,27,32,243
878,-444,16834,60,31,44,243
874,-400,16820,70,29,32,243
886,-416,16802,64,35,28,243
888,-382,16792,67,27,38,243
884,-426,16804,61,31,32,243
900,-418,16832,55,35,46,243
878,-408,16764,66,32,34,243
884,-416,16800,63,26,30,243
872,-422,16830,71,22,35,243
882,-440,16800,68,21,25,243
884,-416,16764,66,24,32,243
880,-408,16792,69,23,40,243
878,-410,16816,62,22,35,243
884,-428,16824,71,25,36,243
856,-408,16786,64,35,33,243
880,-424,16806,66,34,28,243
900,-412,16794,61,43,43,244
872,-410,16850,71,25,37,243
888,-412,16808,71,32,32,243
880,-420,16806,66,19,31,243
878,-408,16818,67,24,46,243
864,-416,16800,50,32,47,243
878,-430,16752,60,32,30,243
884,-384,16798,61,25,44,243
878,-418,16806,58,29,34,243
878,-414,16800,64,29,41,243
870,-432,16788,66,24,39,244
852,-432,16804,67,29,37,243
890,-416,16820,65,21,30,243
882,-400,16822,64,22,32,243
884,-422,16786,67,31,39,243
892,-410,16798,61,28,41,243
886,-424,16818,57,25,35,243
892,-416,16816,64,28,28,243
874,-426,16750,65,35,39,243
914,-400,16784,60,21,33,243
878,-404,16806,64,23,34,243
872,-416,16812,62,31,35,243
872,-404,16780,64,29,42,243
878,-416,16816,56,29,30,244
888,-418,16826,60,25,32,243
856,-416,16820,64,25,36,243
878,-408,16792,67,27,34,243
880,-414,16792,57,40,39,243
834,-384,16818,69,39,36,243
890,-430,16824,63,27,32,243
856,-420,16798,69,30,40,243
872,-406,16796,59,25,39,243
880,-426,16806,67,23,37,243
862,-426,16832,57,39,37,243
870,-418,16768,64,25,38,243
884,-402,16796,69,31,34,243
882,-412,16830,64,27,33,243
890,-398,16808,57,32,33,243
876,-410,16806,66,30,32,243
870,-430,16812,63,30,35,243
886,-414,16816,65,32,35,243
884,-400,16814,64,26,42,243
898,-406,16792,57,23,34,243
876,-390,16808,71,22,35,243
862,-408,16824,63,21,37,243
906,-422,16822,60,39,42,243
884,-422,16780,63,14,32,243
874,-442,16790,67,25,31,243
880,-404,16818,53,29,40,243
882,-422,16806,60,32,34,243
880,-408,16782,57,21,44,243
884,-410,16792,59,29,40,243
864,-394,16822,67,25,29,243
894,-430,16844,64,32,32,243
876,-408,16776,66,31,35,243
864,-416,16768,66,21,44,243
890,-400,16828,64,28,29,243
884,-418,16820,68,27,41,243
894,-408,16766,67,30,37,243
912,-416,16758,54,27,36,243
882,-394,16828,58,23,32,243
898,-424,16818,57,21,35,243
878,-404,16770,60,25,37,243
866,-416,16798,66,22,35,244
886,-436,16800,57,30,35,243
878,-434,16824,57,32,42,243
880,-442,16774,64,28,30,243
884,-398,16792,63,26,40,243
878,-394,16804,59,8,38,243
894,-400,16818,67,23,33,243
858,-408,16782,68,32,31,243
896,-430,16802,58,27,39,243
890,-418,16806,63,25,37,243
898,-408,16806,65,24,35,243
884,-422,16774,64,30,29,243
886,-408,16812,67,17,30,243
882,-422,16820,66,35,39,243
874,-400,16828,63,32,44,243
884,-400,16796,62,21,39,243
858,-426,16812,63,28,39,243
884,-418,16834,64,41,37,243
882,-416,16794,58,21,39,243
872,-408,16790,56,25,35,243
880,-410,16798,59,25,32,243
882,-422,16830,62,21,28,243
882,-416,16804,57,35,39,243
892,-438,16756,60,25,31,243
892,-414,16800,73,30,28,243
878,-424,16800,64,32,32,243
888,-404,16828,67,33,41,243
908,-408,16768,66,24,34,243
888,-402,16808,64,21,35,244
872,-432,16814,67,22,38,243
878,-410,16822,58,33,38,243
878,-400,16772,59,21,43,243
872,-426,16796,62,27,35,243
874,-428,16800,70,28,32,244
884,-436,16828,70,20,33,243
902,-430,16772,64,32,35,243
888,-446,16810,60,28,38,243
864,-412,16804,59,29,47,243
866,-418,16850,63,30,35,243
856,-410,16786,60,34,36,243
882,-440,16782,67,30,36,243
902,-422,16802,64,24,30,243
876,-408,16822,60,22,33,243
868,-442,16766,64,30,42,243
870,-446,16788,60,30,38,243
880,-422,16802,64,29,40,243
858,-448,16802,63,26,34,243
876,-422,16792,62,28,46,243
892,-408,16778,60,49,39,243
878,-406,16810,59,87,36,243
864,-380,16822,57,73,45,243
884,-396,16784,67,32,33,243
894,-396,16784,75,0,39,243
862,-400,16814,62,-4,39,243
876,-412,16814,67,11,29,243
900,-416,16800,54,35,35,243
890,-412,16810,57,53,39,243
892,-410,16816,59,55,41,243
898,-430,16792,65,29,39,243
894,-428,16786,55,19,40,243
884,-394,16778,60,20,42,243
884,-426,16820,61,20,32,243
878,-394,16818,67,35,34,243
892,-424,16790,62,33,32,243
896,-394,16800,64,31,42,243
874,-420,16800,64,30,35,243
894,-394,16834,63,26,36,243
866,-408,16806,66,28,36,243
876,-424,16792,60,30,35,243
870,-422,16814,64,28,35,244
868,-390,16834,65,45,52,243
878,-400,16764,60,38,35,243
858,-432,16804,62,32,33,243
884,-400,16806,64,29,37,243
858,-426,16822,58,24,38,243
862,-392,16796,64,25,32,243
868,-430,16786,64,39,41,243
878,-416,16820,57,29,39,243
884,-416,16830,55,38,41,243
898,-430,16792,64,28,32,243
876,-436,16804,64,25,31,243
880,-422,16846,61,27,39,243
878,-416,16824,64,28,35,243
884,-434,16760,59,21,39,243
878,-416,16820,61,29,43,243
888,-412,16832,58,33,32,243
906,-390,16782,57,42,31,243
900,-430,16784,67,30,35,243
872,-388,16770,69,31,42,243
908,-416,16784,64,29,32,243
880,-430,16824,63,23,35,243
868,-400,16780,59,25,38,243
876,-382,16764,63,31,35,243
900,-408,16834,60,28,39,243
892,-398,16834,66,32,46,243
890,-416,16764,57,23,28,243
900,-416,16796,53,32,35,243
884,-422,16824,58,25,34,243
876,-396,16804,63,29,32,243
870,-416,16792,59,28,32,243
890,-428,16806,62,28,39,243
898,-416,16808,65,28,40,243
864,-414,16824,55,29,40,243
882,-404,16784,57,32,43,243
900,-420,16792,60,32,40,243
862,-436,16798,63,25,33,243
888,-422,16812,66,26,47,243
886,-390,16762,67,25,35,243
890,-422,16786,60,28,37,243
888,-426,16772,73,33,35,243
870,-404,16792,54,38,42,243
872,-406,16770,50,21,42,243
890,-408,16784,57,21,28,244
866,-426,16824,54,22,28,243
892,-398,16806,59,25,35,243
878,-434,16778,69,26,33,243
894,-416,16802,60,31,33,243
874,-412,16830,54,27,31,243
874,-444,16814,60,20,34,243
890,-444,16796,67,24,42,243
890,-422,16814,67,32,34,243
884,-414,16796,55,35,30,243
884,-418,16834,59,32,43,243
886,-408,16774,64,25,24,243
896,-408,16812,66,27,44,243
870,-434,16814,58,24,41,243
900,-404,16778,60,35,35,243
874,-402,16778,62,34,40,243
884,-398,16800,61,37,33,243
884,-424,16814,56,28,35,243
876,-440,16834,60,30,33,243
854,-414,16766,71,24,48,243
878,-418,16796,71,25,44,243
894,-416,16800,60,30,35,243
892,-434,16828,60,26,34,243
908,-400,16770,58,18,42,243
900,-416,16806,63,28,30,243
880,-428,16828,59,30,28,243
872,-438,16832,64,23,34,243
886,-400,16790,63,31,39,243
870,-414,16800,69,32,39,243
872,-410,16832,60,35,42,243
856,-408,16826,73,26,34,243
892,-408,16788,60,22,41,243
896,-408,16776,64,27,28,243
870,-386,16802,59,32,42,243
898,-424,16820,64,29,32,243
866,-408,16792,57,25,36,243
874,-430,16792,71,30,34,243
892,-408,16808,63,30,50,243
864,-418,16818,67,28,34,243
880,-396,16784,71,35,45,243
902,-394,16800,71,28,30,243
878,-404,16800,56,39,40,243
884,-402,16824,64,28,42,243
886,-418,16784,57,29,46,243
868,-440,16770,62,31,48,243
854,-400,16836,60,20,42,243
870,-410,16814,60,36,43,243
900,-422,16764,66,31,33,243
878,-400,16818,65,24,39,243
868,-400,16820,64,28,41,243
900,-430,16824,55,22,36,243
894,-406,16792,55,30,37,243
876,-444,16788,60,38,32,243
878,-412,16806,67,31,34,243
892,-408,16792,67,27,32,243
876,-442,16770,68,31,40,243
870,-418,16802,57,28,39,243
864,-400,16828,60,37,39,243
876,-416,16810,58,22,31,243
894,-404,16756,55,25,36,243
876,-424,16822,64,24,46,243
906,-434,16820,63,20,35,243
884,-398,16824,54,39,36,243
884,-380,16774,59,41,38,243
892,-426,16792,58,26,32,243
874,-414,16802,59,19,32,243
886,-400,16814,57,29,40,243
876,-422,16774,58,32,35,243
892,-420,16792,63,26,35,243
878,-416,16812,56,28,36,243
866,-398,16814,71,36,45,243
876,-410,16750,60,29,42,243
866,-404,16784,58,25,42,243
864,-416,16822,56,26,32,243
890,-406,16806,67,31,34,243
882,-418,16772,62,25,34,243
864,-414,16792,65,21,36,243
888,-424,16820,61,28,39,243
892,-416,16806,57,33,33,243
868,-410,16778,71,34,28,244
870,-426,16792,59,19,38,243
864,-388,16828,70,28,41,243
882,-414,16798,65,30,37,243
896,-424,16772,66,33,33,243
876,-436,16788,57,25,33,243
878,-426,16812,62,30,39,243
856,-418,16798,63,25,35,243
880,-410,16778,60,21,39,243
884,-422,16784,59,39,39,244
910,-414,16818,63,29,40,243
878,-416,16828,60,34,39,243
890,-442,16764,65,30,42,244
884,-418,16796,59,32,33,243
882,-430,16846,56,27,29,243
876,-422,16828,62,35,37,243
848,-422,16780,62,26,38,243
880,-414,16802,49,32,39,243
906,-408,16814,57,17,33,243
870,-410,16792,61,14,36,243
874,-406,16764,67,21,39,243
874,-428,16802,64,26,34,243
882,-426,16830,62,30,50,243
872,-408,16786,66,32,32,243
884,-402,16760,61,25,39,243
884,-426,16802,66,32,37,243
884,-402,16806,67,28,35,243
874,-410,16800,66,33,32,243
882,-428,16766,74,21,36,243
870,-388,16792,74,28,42,243
856,-404,16814,60,31,30,243
928,-410,16824,66,32,41,243
874,-414,16766,67,32,33,243
866,-414,16784,60,29,35,243
872,-416,16834,70,27,37,243
898,-430,16816,57,17,40,243
880,-414,16786,69,25,34,243
864,-408,16818,62,36,28,243
866,-404,16820,57,39,34,243
890,-436,16802,62,27,33,243
886,-404,16784,61,19,39,243
876,-416,16794,51,25,31,243
866,-422,16810,69,30,39,243
900,-416,16788,68,33,36,243
868,-420,16764,71,25,32,243
884,-406,16792,58,30,41,243
864,-406,16804,61,28,43,243
878,-430,16798,62,23,37,243
854,-414,16766,61,27,30,243
876,-420,16770,57,32,44,243
870,-418,16790,58,29,35,243
884,-426,16840,67,33,41,243
870,-424,16764,57,21,33,243
872,-398,16794,65,33,35,243
882,-408,16810,65,25,34,243
882,-402,16826,53,30,42,243
860,-430,16764,66,32,39,243
882,-436,16800,64,28,37,243
894,-408,16820,53,27,43,243
884,-408,16814,60,26,36,243
874,-438,16774,66,25,28,243
890,-410,16804,70,32,35,243
898,-446,16838,64,29,36,243
860,-406,16826,67,35,33,243
864,-436,16758,69,28,22,243
876,-438,16786,55,19,39,243
870,-416,16818,61,27,37,243
878,-394,16806,68,25,30,243
856,-430,16784,62,22,30,243
860,-386,16800,63,37,39,243
900,-432,16806,68,26,29,243
858,-414,16814,67,21,29,243
886,-412,16766,61,23,39,243
866,-424,16800,52,29,39,243
884,-394,16806,65,28,39,243
852,-436,16820,67,25,34,243
892,-410,16754,60,28,35,243
872,-424,16776,63,33,32,243
888,-422,16796,72,34,40,244
896,-418,16812,70,21,39,243
892,-406,16784,63,30,35,243
862,-414,16796,54,35,32,243
884,-408,16800,75,28,39,243
856,-422,16826,62,23,39,243
884,-392,16776,60,25,31,243
904,-402,16774,65,17,45,243
862,-424,16820,57,29,44,243
886,-414,16800,75,32,28,243
880,-408,16752,64,30,41,243
886,-418,16800,64,30,39,243
864,-424,16820,59,33,34,243
858,-404,16824,67,37,34,243
872,-424,16770,69,34,33,243
896,-404,16806,63,29,37,243
892,-422,16802,52,30,35,243
886,-390,16796,64,14,25,243
894,-408,16772,67,23,34,243
886,-408,16802,58,30,38,243
892,-436,16806,68,33,32,243
894,-398,16806,60,31,44,243
874,-422,16780,63,25,32,243
878,-420,16808,71,30,35,243
870,-430,16808,69,23,41,243
892,-398,16788,70,28,40,243
864,-406,16796,66,35,35,243
890,-386,16814,72,35,31,243
886,-426,16800,61,26,33,243
890,-420,16820,66,29,32,243
880,-416,16752,59,24,30,243
890,-404,16788,55,30,43,243
872,-424,16810,62,23,31,243
878,-422,16778,63,32,35,243
878,-428,16808,62,31,30,243
872,-406,16788,56,30,35,244
864,-408,16818,66,23,32,243
880,-422,16792,61,35,33,243
878,-424,16786,57,33,25,243
894,-404,16786,56,32,30,243
906,-428,16822,55,28,33,243
882,-430,16802,69,28,42,243
864,-416,16750,66,25,33,243
886,-420,16798,65,36,29,243
892,-404,16838,67,28,33,243
888,-436,16788,63,36,32,243
884,-408,16784,66,25,31,243
894,-438,16802,66,21,32,243
878,-408,16814,51,19,32,243
866,-426,16812,54,26,41,243
864,-422,16784,59,30,36,243
858,-408,16810,56,25,34,243
882,-384,16804,59,26,28,243
858,-420,16768,61,31,40,243
880,-412,16774,64,36,36,243
862,-408,16784,52,25,34,243
884,-408,16834,62,29,42,243
860,-420,16800,65,31,35,243
896,-430,16764,58,25,32,243
856,-424,16782,63,28,38,243
854,-422,16830,63,24,40,243
870,-420,16806,65,32,34,243
904,-418,16800,66,31,31,243
880,-416,16784,60,35,35,243
906,-436,16804,56,27,32,243
880,-438,16806,64,28,35,243
870,-416,16772,67,39,34,243
900,-420,16788,70,29,43,243
882,-408,16810,61,28,39,243
874,-418,16824,53,27,24,243
880,-416,16774,53,19,35,243
880,-412,16796,64,21,32,243
888,-416,16820,60,38,35,243
884,-424,16782,64,23,27,243
878,-404,16780,60,27,35,243
878,-396,16788,57,24,41,243
870,-388,16816,62,32,35,244
884,-412,16776,58,22,39,243
888,-390,16774,61,30,26,243
864,-432,16780,62,33,36,244
900,-434,16834,64,17,37,243
880,-422,16806,57,25,39,243
870,-400,16758,65,21,31,243
880,-444,16794,64,31,38,243
884,-418,16792,56,28,33,244
870,-408,16796,55,29,36,243
856,-438,16764,67,17,35,243
870,-436,16828,54,21,32,243
906,-386,16820,60,25,35,243
868,-394,16816,64,23,34,243
888,-408,16778,60,35,32,243
892,-416,16778,67,39,32,243
882,-406,16814,60,27,28,243
870,-418,16802,60,28,36,243
876,-412,16762,61,27,32,243
864,-438,16784,66,26,35,243
896,-408,16824,62,20,28,243
884,-410,16798,73,25,37,243
874,-422,16770,57,30,37,243
894,-408,16784,67,32,23,243
898,-458,16810,58,31,32,243
870,-408,16800,55,24,31,243
884,-410,16762,57,27,30,243
872,-402,16814,57,37,25,243
874,-416,16812,55,27,27,243
882,-414,16826,58,33,34,243
870,-418,16770,60,22,39,243
886,-412,16794,50,29,31,243
884,-444,16814,67,25,31,243
844,-426,16804,64,20,35,243
866,-428,16786,60,27,32,243
868,-408,16800,65,25,39,243
888,-426,16834,58,29,37,243
882,-388,16790,74,27,43,243
880,-416,16770,68,31,32,243
882,-420,16792,55,28,35,243
878,-422,16828,60,35,29,243
890,-408,16814,60,33,36,243
848,-410,16766,72,24,35,243
890,-444,16792,54,21,36,243
886,-422,16826,67,26,35,243
872,-420,16800,66,30,36,243
884,-400,16764,63,25,28,243
876,-422,16820,66,25,34,243
886,-424,16788,69,29,38,243
882,-400,16828,73,25,39,243
896,-436,16762,58,30,44,243
916,-428,16782,61,31,37,243
886,-398,16826,58,24,34,243
896,-382,16820,61,21,24,243
864,-422,16796,57,28,40,243
862,-438,16786,67,24,30,243
864,-400,16842,70,27,30,243
890,-404,16816,60,40,49,243
880,-410,16782,66,21,35,243
902,-412,16788,61,25,39,243
884,-402,16818,63,25,35,243
866,-442,16792,65,24,33,243
878,-420,16744,62,38,37,243
870,-404,16802,61,39,46,243
874,-416,16820,64,34,32,243
876,-414,16810,53,19,45,243
870,-430,16786,58,22,46,243
884,-410,16798,56,21,24,243
884,-412,16814,68,30,39,243
882,-396,16796,61,28,30,243
894,-398,16768,64,29,41,243
880,-416,16778,57,26,30,243
868,-428,16828,67,23,29,243
886,-432,16814,62,25,41,243
856,-432,16792,61,29,42,243
868,-402,16786,65,32,28,243
890,-410,16796,65,21,37,243
882,-408,16832,67,31,39,243
872,-422,16792,64,28,29,243
884,-404,16762,60,28,32,243
880,-402,16820,57,32,36,243
884,-408,16814,67,30,38,243
864,-444,16736,68,25,42,243
884,-408,16804,64,23,35,243
860,-438,16800,64,29,44,243
884,-408,16816,60,21,37,243
874,-422,16758,67,28,41,243
882,-430,16816,62,33,32,243
870,-424,16828,60,39,37,243
858,-422,16792,63,27,39,243
864,-422,16792,58,25,29,243
860,-404,16812,61,28,38,243
860,-436,16808,62,26,36,243
892,-416,16784,62,39,36,243
884,-400,16784,57,31,35,243
884,-428,16800,64,26,35,243
872,-408,16802,60,17,37,243
878,-422,16810,62,28,37,243
868,-390,16772,56,26,42,243
878,-422,16770,55,34,35,243
872,-422,16806,66,26,40,244
906,-428,16794,68,28,41,243
874,-406,16776,64,30,31,243
888,-424,16776,65,28,35,243
870,-456,16818,59,34,37,243
864,-406,16790,71,31,43,243
892,-416,16768,63,28,42,243
860,-432,16794,65,31,42,243
872,-430,16820,59,28,34,243
844,-426,16788,64,27,29,243
898,-442,16782,64,32,41,243
894,-408,16798,61,33,29,243
906,-448,16786,60,22,33,243
862,-430,16804,66,30,41,243
898,-450,16788,60,9,35,243
870,-420,16792,68,33,32,243
870,-382,16840,60,31,35,243
870,-412,16806,64,32,40,243
880,-436,16780,60,28,45,243
866,-394,16788,68,30,46,243
856,-414,16808,65,27,33,243
892,-434,16802,53,25,40,243
892,-416,16788,56,34,40,243
882,-416,16784,60,27,48,243
888,-408,16806,63,25,35,243
856,-416,16828,56,28,35,243
892,-398,16760,60,29,33,243
894,-434,16788,54,26,39,243
880,-402,16798,61,28,32,243
900,-428,16778,61,32,32,243
886,-412,16770,57,30,34,243
882,-422,16814,66,34,37,243
892,-430,16810,57,29,29,243
878,-430,16802,64,28,35,243
862,-428,16778,73,35,33,243
872,-418,16778,61,24,32,243
856,-418,16810,61,29,32,243
876,-422,16806,64,28,27,243
892,-412,16756,59,27,39,243
884,-436,16786,64,25,39,243
878,-404,16812,69,28,31,243
896,-406,16792,56,19,35,243
860,-430,16756,64,32,33,243
892,-428,16798,64,28,33,243
872,-416,16826,70,36,36,243
884,-428,16804,62,27,35,244
888,-418,16766,64,31,40,243
876,-400,16802,68,28,39,243
864,-408,16806,64,26,38,243
900,-396,16812,60,28,39,243
874,-398,16758,57,25,39,243
892,-412,16802,62,28,35,243
870,-404,16822,62,25,35,243
870,-408,16796,70,33,29,243
878,-416,16778,60,28,21,243
864,-408,16800,64,33,31,243
890,-408,16816,54,34,40,243
862,-398,16806,62,25,35,243
882,-416,16762,67,38,31,243
886,-394,16792,65,25,32,243
878,-420,16806,57,25,34,243
880,-406,16818,60,25,33,243
876,-400,16784,64,25,38,243
880,-422,16806,55,32,39,243
878,-422,16806,55,32,26,243
864,-416,16808,61,32,42,243
898,-412,16750,58,35,38,243
886,-424,16816,59,28,33,243
846,-408,16828,51,24,36,243
884,-400,16810,60,28,37,243
898,-394,16782,58,21,36,243
900,-424,16780,53,23,33,243
874,-412,16808,64,25,32,243
892,-408,16790,64,34,40,243
878,-434,16784,63,22,39,243
864,-396,16792,65,26,39,243
886,-414,16808,65,28,47,243
874,-394,16798,62,30,34,243
872,-430,16764,62,28,35,243
890,-418,16800,60,26,36,243
884,-422,16804,61,33,39,243
896,-434,16826,58,24,39,243
862,-406,16764,69,24,33,243
880,-406,16792,59,24,35,243
886,-406,16806,73,25,38,243
886,-414,16808,60,25,43,243
904,-416,16772,60,28,35,243
856,-404,16804,64,30,35,243
900,-422,16796,65,32,41,243
882,-414,16802,67,27,32,243
876,-416,16794,59,28,27,243
882,-390,16824,67,31,46,243
880,-442,16802,61,24,27,243
898,-426,16804,66,25,46,243
864,-432,16780,64,24,33,243
856,-400,16778,57,34,29,243
888,-410,16838,66,27,39,243
880,-404,16812,57,28,35,243
874,-422,16762,60,25,42,243
864,-410,16800,64,18,28,243
884,-422,16830,57,30,27,243
856,-430,16784,62,39,30,243
872,-410,16784,64,17,30,243
896,-430,16836,60,21,29,243
884,-424,16826,54,18,29,243
838,-412,16776,59,25,36,243
876,-420,16754,62,22,43,243
872,-418,16776,66,30,32,243
850,-406,16824,60,34,29,243
878,-444,16800,71,31,30,243
900,-412,16770,57,27,30,243
830,-410,16822,63,25,42,243
914,-430,16802,60,25,32,243
860,-420,16806,52,30,32,243
870,-436,16744,62,28,36,243
864,-390,16800,64,21,46,243
878,-422,16808,56,20,33,243
874,-428,16812,50,35,40,243
858,-416,16770,62,32,37,243
892,-416,16800,63,35,30,243
886,-406,16814,58,29,35,243
870,-430,16784,69,25,32,243
878,-394,16770,62,26,34,243
878,-422,16784,56,29,37,244
906,-424,16798,57,20,38,243
882,-406,16810,54,32,34,243
870,-416,16784,54,29,32,243
878,-400,16782,59,31,31,243
884,-436,16830,68,28,42,243
888,-418,16814,59,35,31,243
886,-410,16766,64,35,28,243
872,-430,16778,63,35,38,243
870,-428,16794,55,28,36,243
860,-382,16800,62,33,32,243
864,-422,16784,58,21,32,243
864,-416,16820,60,27,36,243
878,-410,16806,62,22,39,243
874,-430,16786,66,29,21,243
872,-422,16766,63,23,32,243
876,-408,16784,67,26,38,243
882,-412,16814,64,23,43,243
852,-430,16778,62,31,28,243
882,-410,16778,60,28,35,243
878,-402,16788,68,31,29,243
884,-416,16786,63,35,34,243
886,-392,16814,64,34,38,243
878,-432,16772,58,21,36,243
870,-412,16828,64,28,33,243
864,-416,16818,62,25,34,243
892,-418,16822,60,25,36,243
890,-426,16768,58,28,43,243
896,-400,16798,70,26,38,243
892,-426,16826,65,35,35,243
856,-410,16794,60,22,28,243
842,-398,16786,64,39,38,243
894,-432,16800,60,35,32,243
884,-438,16814,60,29,39,243
882,-420,16786,57,21,34,243
876,-432,16784,60,27,40,243
874,-424,16806,55,21,35,243
868,-416,16818,57,36,32,243
878,-432,16802,61,27,38,243
868,-412,16750,63,26,29,243
884,-410,16802,62,21,38,243
876,-414,16782,61,23,37,243
878,-418,16806,54,32,36,243
860,-386,16796,60,32,31,243
864,-412,16834,61,39,32,243
894,-418,16826,62,20,32,243
844,-400,16816,59,27,23,243
864,-422,16784,62,26,30,243
866,-412,16814,55,23,29,243
892,-412,16798,63,29,27,243
868,-404,16808,64,25,42,243
902,-426,16782,65,24,32,243
884,-400,16802,62,19,29,243
888,-436,16806,59,28,29,243
864,-418,16800,64,23,32,243
858,-424,16784,63,32,24,243
882,-414,16802,66,37,39,243
882,-410,16822,54,21,27,243
888,-406,16762,64,28,34,243
878,-416,16764,57,24,32,243
880,-444,16784,67,30,30,243
882,-422,16822,63,35,35,243
878,-426,16810,64,27,34,243
864,-424,16748,66,24,33,243
870,-396,16798,57,25,31,243
868,-402,16812,59,28,39,243
898,-396,16800,55,31,35,243
898,-408,16778,66,29,32,243
880,-394,16814,60,21,35,243
868,-416,16806,60,31,38,243
898,-402,16810,60,29,37,243
884,-406,16762,64,32,37,243
870,-426,16816,64,35,32,243
874,-454,16816,66,38,31,243
886,-394,16802,61,26,41,243
864,-424,16766,72,25,40,243
858,-398,16806,67,25,35,243
884,-430,16834,55,21,30,243
904,-440,16804,60,27,30,243
892,-406,16760,64,28,37,243
870,-444,16776,58,25,29,243
882,-412,16792,59,25,32,243
870,-410,16810,58,28,29,244
876,-428,16792,59,28,28,243
878,-408,16804,61,30,39,243
882,-426,16834,60,28,31,243
902,-432,16808,64,34,26,243
872,-422,16778,63,28,50,243
868,-422,16806,69,29,35,243
880,-406,16794,67,16,26,243
864,-444,16792,68,28,42,243
874,-424,16786,67,29,42,243
892,-414,16806,56,28,32,243
880,-402,16842,54,19,29,243
870,-396,16772,57,22,25,243
870,-440,16780,57,20,25,243
864,-426,16824,65,32,35,243
894,-416,16816,57,32,33,243
890,-422,16822,64,30,28,243
884,-404,16814,62,24,39,243
870,-434,16800,60,24,33,243
850,-402,16796,58,25,23,243
870,-416,16808,66,25,35,243
878,-410,16752,67,27,34,243
884,-422,16792,61,28,42,243
852,-436,16802,64,29,42,243
868,-420,16782,62,27,29,243
870,-398,16770,61,23,29,243
872,-406,16806,59,29,29,243
872,-428,16808,64,21,34,243
868,-440,16778,68,21,31,243
886,-416,16784,67,29,33,243
890,-424,16822,64,34,36,243
886,-400,16806,66,28,39,243
840,-424,16804,57,21,42,243
868,-450,16756,61,28,30,243
888,-400,16796,59,29,33,243
878,-400,16814,57,22,23,243
884,-400,16788,64,25,32,243
876,-400,16746,64,32,33,243
896,-398,16814,64,32,28,243
864,-448,16808,70,35,35,243
868,-408,16796,65,29,28,243
888,-408,16788,63,25,37,243
876,-416,16790,58,32,28,243
900,-394,16814,66,22,36,243
860,-436,16778,59,25,32,244
888,-416,16754,68,28,34,243
882,-428,16800,60,16,27,243
880,-416,16794,53,20,30,243
878,-412,16786,67,20,39,243
904,-418,16762,59,28,39,243
886,-408,16800,62,24,48,243
872,-384,16806,62,24,39,243
876,-414,16784,57,38,34,243
880,-400,16774,64,28,42,243
884,-404,16806,64,24,33,243
888,-380,16828,59,23,35,243
898,-408,16778,64,25,30,243
880,-422,16764,56,35,28,243
860,-410,16784,59,44,35,243
870,-422,16834,61,21,38,243
878,-386,16820,61,25,29,243
864,-436,16758,68,15,25,243
900,-414,16820,64,15,25,243
872,-418,16800,62,32,38,243
888,-400,16760,71,28,38,243
890,-388,16818,60,35,32,243
856,-442,16804,61,17,37,243
856,-444,16852,60,24,31,243
872,-392,16762,61,31,38,243
892,-416,16754,68,44,39,243
884,-466,16778,59,36,37,243
878,-408,16802,58,16,37,243
854,-404,16814,47,29,36,243
884,-420,16776,61,25,35,243
892,-400,16806,60,42,41,243
884,-386,16830,67,35,33,243
888,-414,16804,57,21,38,243
860,-426,16804,58,15,30,243
892,-436,16784,57,18,32,243
864,-406,16806,58,26,45,243
858,-408,16822,53,28,30,243
880,-438,16772,59,25,39,243
884,-422,16784,66,28,33,243
842,-416,16810,64,35,22,243
874,-412,16810,59,28,35,243
884,-400,16772,68,25,39,243
884,-416,16826,64,35,44,243
896,-398,16816,60,21,37,243
886,-422,16814,64,12,38,243
884,-418,16764,58,31,41,243
870,-390,16816,58,32,35,243
880,-430,16808,63,12,30,243
878,-408,16796,57,26,44,243
870,-430,16770,61,35,33,243
880,-400,16802,52,35,37,243
864,-412,16798,60,31,38,243
864,-416,16784,63,23,47,243
872,-394,16772,60,21,25,243
892,-424,16788,64,32,46,243
902,-460,16836,60,31,39,243
884,-416,16792,57,34,29,243
884,-416,16770,63,34,40,243
914,-418,16814,62,30,39,243
874,-414,16832,67,28,38,243
876,-418,16756,53,23,41,243
864,-430,16796,71,34,32,243
872,-406,16814,57,28,37,243
884,-396,16786,71,30,32,243
878,-380,16794,68,35,36,243
856,-414,16766,60,25,28,243
878,-420,16796,60,30,42,243
872,-424,16808,65,21,35,243
870,-408,16784,54,28,32,243
892,-414,16770,64,21,32,243
900,-404,16798,65,19,34,243
878,-422,16792,60,35,32,243
856,-424,16792,67,38,29,243
892,-406,16756,61,32,39,243
844,-436,16814,65,38,41,243
854,-400,16832,62,25,32,243
870,-434,16784,64,26,25,243
868,-418,16756,63,28,29,243
866,-418,16800,60,23,33,243
894,-400,16840,71,33,39,243
880,-420,16786,60,30,32,243
898,-422,16766,68,38,39,243
864,-424,16808,62,24,25,243
892,-426,16800,65,28,33,243
890,-408,16778,68,28,39,243
882,-420,16770,64,32,33,243
900,-442,16792,59,39,28,243
860,-416,16830,50,36,38,243
878,-402,16812,63,30,30,243
870,-430,16780,61,29,35,243
896,-424,16814,71,32,27,243
878,-426,16808,66,27,37,243
888,-422,16806,56,22,32,243
886,-400,16754,53,26,36,243
892,-404,16796,71,25,38,243
868,-444,16814,68,26,34,243
864,-418,16790,67,31,41,243
872,-412,16786,73,31,42,243
864,-410,16794,64,14,28,243
872,-422,16818,64,31,33,243
884,-400,16806,63,25,41,243
878,-418,16758,64,25,33,243
884,-408,16806,61,36,33,244
884,-404,16806,54,35,38,243
886,-424,16800,54,27,39,243
878,-416,16778,75,33,28,243
884,-406,16812,64,27,39,243
872,-436,16828,59,25,33,243
900,-436,16776,64,22,31,243
878,-412,16782,62,22,50,243
864,-442,16828,64,35,42,243
864,-422,16838,58,35,35,243
854,-436,16814,56,30,31,243
874,-434,16790,59,28,32,243
852,-414,16820,53,34,28,243
864,-418,16842,65,30,35,243
858,-414,16806,60,38,39,243
874,-440,16800,59,29,32,243
872,-436,16818,60,22,36,243
902,-412,16826,59,22,33,243
870,-392,16772,64,26,29,243
868,-424,16786,56,31,30,243
870,-408,16796,59,32,25,243
884,-430,16828,64,25,32,243
848,-422,16792,60,23,34,243
890,-404,16780,70,21,32,243
874,-430,16802,59,28,31,243
870,-432,16822,65,27,28,243
892,-430,16792,53,33,25,243
884,-410,16764,60,25,36,243
894,-400,16790,60,20,39,243
892,-400,16810,60,21,28,243
854,-410,16794,61,23,36,243
876,-424,16750,60,36,42,243
886,-414,16800,66,23,41,243
876,-398,16814,59,29,39,243
860,-430,16804,57,32,35,243
874,-418,16772,54,30,30,243
880,-434,16814,64,28,42,243
880,-406,16834,63,25,39,243
858,-434,16792,62,22,33,243
904,-420,16778,71,20,34,243
876,-406,16800,57,27,28,243
878,-410,16838,61,46,32,243
878,-414,16782,59,32,33,243
870,-424,16790,58,30,37,243
884,-420,16812,64,28,35,243
866,-430,16820,63,26,37,243
864,-418,16804,61,29,21,243
890,-432,16770,60,25,32,243
834,-426,16810,62,28,32,243
864,-432,16798,70,32,32,243
866,-408,16800,68,39,44,243
892,-408,16760,57,31,29,243
838,-400,16806,53,28,38,243
870,-434,16824,54,21,22,244
